,subj,trial,block,practice,condition,sex,age,date,data_file,texture_id,stim_order,diameter,opening,spacing,response,rt,index,date_yymmdd,hour_h,minute_min,start_s,end_s,sliding_distance_mm,v_mean_mms,fn_mean_n,fn_std_n,ft_mean_n,ft_std_n,cof_mean,cof_std,rms_accelero_ms
0,6,0,1,False,soft,f,23,2022-11-10 08:22:05.219727,results/221110_08.22_data_subj6_block1_trial0.csv,E030,1,260.0,140.0,400.0,False,10.857,0,221110,8,22,2.4468000000000467,2.9188000000000467,27.3365143997897,56.48505466571352,0.10188919224327968,0.017505881746900633,0.41140444362665834,0.07733346530929278,4.112849336830969,0.8157651553226483,4.33897188059261
1,6,1,1,False,soft,f,23,2022-11-10 08:22:05.219727,results/221110_08.22_data_subj6_block1_trial1.csv,E061,1,80.0,170.0,250.0,True,11.883,2,221110,8,22,3.289,3.992599999999977,32.96888636552774,51.992635985431804,0.23233878991511783,0.04552187213136835,0.28490562465188213,0.026106045469960718,1.2578710461961544,0.17583873257877858,2.3764602585380143
2,6,2,1,False,soft,f,23,2022-11-10 08:22:05.219727,results/221110_08.22_data_subj6_block1_trial2.csv,E048,1,170.0,170.0,340.0,False,10.245,4,221110,8,22,2.7381999999999533,3.363599999999977,48.90796708360375,63.35352701612939,0.12492672096537383,0.017377432836229712,0.4082663441796254,0.05277140960257184,3.309571443313781,0.5122672078650033,2.4982838663906732
3,6,3,1,False,soft,f,23,2022-11-10 08:22:05.219727,results/221110_08.22_data_subj6_block1_trial3.csv,E069,1,20.0,140.0,160.0,True,9.698,6,221110,8,22,2.9611999999999536,3.4458000000000464,35.73236049090955,68.7841723506922,0.29526842584923346,0.03201843156126837,0.1779603696065643,0.027178483491439358,0.6005009098111161,0.04033396598947426,1.1571801059530955
4,6,4,1,False,soft,f,23,2022-11-10 08:22:05.219727,results/221110_08.22_data_subj6_block1_trial4.csv,E028,1,500.0,260.0,760.0,True,9.379,8,221110,8,22,2.4545999999999766,3.1165999999999765,28.16703877123384,39.14674727615989,0.2578214246548313,0.042835586780617066,0.36724585510492574,0.05528277429563858,1.4302705740089228,0.09217667410429507,1.715673766286283
5,6,5,1,False,soft,f,23,2022-11-10 08:22:05.219727,results/221110_08.22_data_subj6_block1_trial5.csv,E017,1,170.0,50.0,220.0,True,9.393,10,221110,8,22,2.5851999999999533,3.435400000000023,37.68299969069007,47.93402553786033,0.44162700699585766,0.03138127355370856,0.43499142557476733,0.03921746447090658,0.9852774869037404,0.05966630436077147,1.0892182863925788
6,6,6,1,False,soft,f,23,2022-11-10 08:22:05.219727,results/221110_08.22_data_subj6_block1_trial6.csv,E034,1,320.0,200.0,520.0,False,10.399,12,221110,8,22,2.2808000000000463,3.0184000000000233,34.17315086113348,47.24603105021177,0.42663150767140523,0.07081618083549968,0.33059066789403624,0.07880694233292988,0.766190156315059,0.07750104171079027,0.8978282275154508
7,6,6,1,False,soft,f,23,2022-11-10 08:22:05.219727,results/221110_08.22_data_subj6_block1_trial6.csv,E079,2,50.0,110.0,160.0,True,10.399,13,221110,8,22,6.489599999999976,7.259800000000046,33.05719334275935,48.21451569076567,0.35361492330573174,0.02357719685440071,0.38736905836036134,0.025195781649856704,1.1016301195836762,0.11344650613061628,1.7095972285102181
8,6,7,1,False,soft,f,23,2022-11-10 08:22:05.219727,results/221110_08.22_data_subj6_block1_trial7.csv,E034,1,320.0,200.0,520.0,True,8.764,14,221110,8,22,2.2851999999999535,3.1584000000000234,35.07615549560752,44.84127150791987,0.5829988295608829,0.06687986875425454,0.4658358912164902,0.05223691795382647,0.8011881823129919,0.05099330040889356,0.7187005885147799
9,6,7,1,False,soft,f,23,2022-11-10 08:22:05.219727,results/221110_08.22_data_subj6_block1_trial7.csv,E071,2,20.0,260.0,280.0,False,8.764,15,221110,8,22,5.8398000000000465,6.5658000000000465,33.562477540384705,49.31636470351,0.3528790912211235,0.08192921016774418,0.34604599362679955,0.07158935521780904,0.9916612821741566,0.11392388258086089,1.6168845320556156
10,6,8,1,False,soft,f,23,2022-11-10 08:22:05.219727,results/221110_08.22_data_subj6_block1_trial8.csv,E072,1,20.0,320.0,340.0,False,9.776,16,221110,8,22,2.6315999999999766,3.438400000000023,37.24604807861734,44.698537896979644,0.3662242205198091,0.06496774184818321,0.241102367369162,0.06345530497399732,0.666057801144392,0.1596116798383821,2.1397566820570084
11,6,9,1,False,soft,f,23,2022-11-10 08:22:05.219727,results/221110_08.22_data_subj6_block1_trial9.csv,E021,1,560.0,200.0,760.0,False,9.116,18,221110,8,22,2.6411999999999534,3.680400000000023,38.383929595003536,38.58578643932638,0.3960888798049898,0.03442541593588429,0.3527168280487726,0.04865301038896366,0.8961214552311424,0.1370437559744385,0.764985522671628
12,6,10,1,False,soft,f,23,2022-11-10 08:22:05.219727,results/221110_08.22_data_subj6_block1_trial10.csv,E048,1,170.0,170.0,340.0,True,8.131,20,221110,8,22,2.3754000000000235,3.2911999999999533,40.214769886670766,46.47589110878781,0.5925214884531645,0.037924617226676206,0.3265889812178978,0.019148316817130605,0.5545427749855846,0.059775179795556556,0.6739951952729936
13,6,10,1,False,soft,f,23,2022-11-10 08:22:05.219727,results/221110_08.22_data_subj6_block1_trial10.csv,E024,2,500.0,200.0,700.0,False,8.131,21,221110,8,22,5.934599999999977,6.4804000000000235,31.999294703382546,60.30281817923928,0.4163460361595271,0.024897012718876607,0.40147277079638627,0.025445060296321258,0.9666302338044145,0.0712212992318355,1.150168395647439
14,6,11,1,False,soft,f,23,2022-11-10 08:22:05.219727,results/221110_08.22_data_subj6_block1_trial11.csv,E001,1,560.0,20.0,580.0,False,9.045,22,221110,8,22,2.3491999999999535,3.0978000000000465,36.70013140997747,53.95001035745781,0.2291292453804233,0.04349134759320385,0.5357104440750654,0.05006185702630406,2.411697890031028,0.44090116639188054,0.45351516808302805
15,6,12,1,False,soft,f,23,2022-11-10 08:22:05.219727,results/221110_08.22_data_subj6_block1_trial12.csv,E017,1,170.0,50.0,220.0,True,8.781,24,221110,8,22,1.982399999999907,2.812399999999907,40.283910654546816,48.68901206241034,0.39715956056160934,0.029246896091795368,0.30437759616773874,0.02687264354224878,0.766018675613412,0.029339602182765975,0.7093819335373127
16,6,12,1,False,soft,f,23,2022-11-10 08:22:05.219727,results/221110_08.22_data_subj6_block1_trial12.csv,E009,2,560.0,80.0,640.0,False,8.781,25,221110,8,22,5.204199999999953,5.795399999999907,31.94933434482801,57.029271170457946,0.4702252957601046,0.032766762044991245,0.41873769664576965,0.03911625957371105,0.8898371231217729,0.04484306065007249,1.104825922597331
17,6,13,1,False,soft,f,23,2022-11-10 08:22:05.219727,results/221110_08.22_data_subj6_block1_trial13.csv,E083,1,107.0,27.0,134.0,True,8.515,26,221110,8,22,2.0241999999999534,2.6838000000000464,35.34701027352538,56.051732187926085,0.5449779319187514,0.05977979599954237,0.19059844657689157,0.026024566957620305,0.34890692780843297,0.01520957844050649,0.4512758535081522
18,6,13,1,False,soft,f,23,2022-11-10 08:22:05.219727,results/221110_08.22_data_subj6_block1_trial13.csv,E016,2,500.0,140.0,640.0,False,8.515,27,221110,8,22,5.279800000000047,6.119800000000047,39.54912095582734,49.17765310118402,0.3288917396402781,0.0608908803994782,0.5916742893429552,0.07417826850766276,1.8708400841029622,0.4373736245076682,1.1019782540103347
19,6,14,1,False,soft,f,23,2022-11-10 08:22:05.219727,results/221110_08.22_data_subj6_block1_trial14.csv,E057,1,200.0,320.0,520.0,False,9.063,28,221110,8,22,2.2048000000000467,3.0726000000000933,37.41783060906243,49.310553923061974,0.6406382230224765,0.06646948448002246,0.2995985423992166,0.03901013582001433,0.46789127199838754,0.03941344773909607,0.9934857595715619
20,6,14,1,False,soft,f,23,2022-11-10 08:22:05.219727,results/221110_08.22_data_subj6_block1_trial14.csv,E065,2,80.0,260.0,340.0,True,9.063,29,221110,8,22,5.692399999999907,6.717399999999907,38.77385648988339,38.34971873282572,0.49068402503652775,0.040332168463778094,0.545236421570842,0.09096243963293436,1.1046890204516728,0.11330363254888158,1.509096970586981
21,6,15,1,False,soft,f,23,2022-11-10 08:22:05.219727,results/221110_08.22_data_subj6_block1_trial15.csv,E001,1,560.0,20.0,580.0,True,9.479,30,221110,8,22,2.2661999999999534,3.4668000000000467,42.440759510485734,36.85885047931347,0.457448778148481,0.030858794267954386,0.43651803587540805,0.09680856407340341,0.9555352980945722,0.20797441111332624,0.4060949990762503
22,6,16,1,False,soft,f,23,2022-11-10 08:22:05.219727,results/221110_08.22_data_subj6_block1_trial16.csv,E055,1,140.0,200.0,340.0,False,8.946,32,221110,8,22,2.579,3.647600000000093,43.71561260465077,41.94565637184195,0.6405654023556883,0.03949333100134671,0.3488549349428378,0.06233003099007899,0.5465872183609779,0.10496269576171868,0.8745952670410632
23,6,16,1,False,soft,f,23,2022-11-10 08:22:05.219727,results/221110_08.22_data_subj6_block1_trial16.csv,E068,2,20.0,80.0,100.0,True,8.946,33,221110,8,22,6.077399999999907,6.977800000000046,42.442497001879715,48.97203383776179,0.5893271819951468,0.03375535550749371,0.458202608362701,0.024405664290724785,0.7784705187381091,0.03539933029119456,0.893399357796279
24,6,17,1,False,soft,f,23,2022-11-10 08:22:05.219727,results/221110_08.22_data_subj6_block1_trial17.csv,E023,1,200.0,80.0,280.0,True,8.93,34,221110,8,22,2.296399999999907,3.3091999999999535,40.244543871566194,43.801796242407875,0.5789114594505833,0.030271612333904567,0.3890738766593015,0.03949469571342114,0.6714057336235487,0.052329152504718056,0.9096543722653929
25,6,18,1,False,soft,f,23,2022-11-10 08:22:05.219727,results/221110_08.22_data_subj6_block1_trial18.csv,E025,1,320.0,140.0,460.0,False,9.748,36,221110,8,22,3.045600000000093,4.0978000000000465,41.83142669160636,40.64194741358498,0.572798337187983,0.04993448156350587,0.47684955519989963,0.06838750698538935,0.8385619887245475,0.13165503639315676,1.0636126662519472
26,6,18,1,False,soft,f,23,2022-11-10 08:22:05.219727,results/221110_08.22_data_subj6_block1_trial18.csv,E061,2,80.0,170.0,250.0,True,9.748,37,221110,8,22,6.554600000000093,7.471199999999953,39.4316093634301,45.76418671564298,0.5978795874101003,0.06695017035069491,0.4307655436859945,0.0742447257439452,0.7162580695615335,0.061898175972011145,1.2756587030303095
27,6,19,1,False,soft,f,23,2022-11-10 08:22:05.219727,results/221110_08.22_data_subj6_block1_trial19.csv,E081,1,107.0,210.0,317.0,True,8.364,38,221110,8,22,2.337,3.1911999999999536,39.9838768618134,49.0681125037766,0.6459114550075465,0.04826576588909125,0.30953826031783627,0.05421588604022522,0.4761031575546675,0.053198903190292246,0.7054590351044518
28,6,20,1,False,soft,f,23,2022-11-10 08:22:05.219727,results/221110_08.22_data_subj6_block1_trial20.csv,E002,1,500.0,20.0,520.0,False,8.532,40,221110,8,22,1.915,3.063399999999907,42.287023288225974,40.126101321476725,0.5938254870459975,0.026930940149152673,0.4116217088390949,0.04664191852678913,0.6916177105719079,0.05689962227525419,0.512426414331724
29,6,20,1,False,soft,f,23,2022-11-10 08:22:05.219727,results/221110_08.22_data_subj6_block1_trial20.csv,E025,2,320.0,140.0,460.0,True,8.532,41,221110,8,22,5.436399999999907,6.352399999999907,41.68947493161099,49.81317389751009,0.6689561548375342,0.02235348532107747,0.4800663920887979,0.05799450106998654,0.7183879101732159,0.09008014788584973,1.1059378691296475
30,6,21,1,False,soft,f,23,2022-11-10 08:22:05.219727,results/221110_08.22_data_subj6_block1_trial21.csv,E038,1,110.0,80.0,190.0,False,9.531,42,221110,8,22,3.0238000000000467,3.87,32.77652187577017,40.84909504670623,0.4281685743266322,0.05605483758656149,0.3646357206219216,0.01940253627690169,0.8629004904263193,0.09468397801931257,1.2657785219745248
31,6,21,1,False,soft,f,23,2022-11-10 08:22:05.219727,results/221110_08.22_data_subj6_block1_trial21.csv,E033,2,80.0,50.0,130.0,True,9.531,43,221110,8,22,7.0048000000000465,7.384600000000093,11.97714131691226,33.49367802499376,0.342909633763726,0.03320026139083111,0.5633713762468223,0.04370426182947029,1.6477797444813027,0.0836052886161318,0.7742465186440002
32,6,22,1,False,soft,f,23,2022-11-10 08:22:05.219727,results/221110_08.22_data_subj6_block1_trial22.csv,E070,1,20.0,200.0,220.0,False,9.498,44,221110,8,22,2.660399999999907,3.582399999999907,37.87239168317948,42.39534186437638,0.35199709589445344,0.057550674114158984,0.19432306020449608,0.03689454763295044,0.5542396359621043,0.0759839349752793,2.0138326047830453
33,6,23,1,False,soft,f,23,2022-11-10 08:22:05.219727,results/221110_08.22_data_subj6_block1_trial23.csv,E076,1,50.0,50.0,100.0,True,9.114,46,221110,8,22,2.3078000000000465,3.273399999999907,41.48738832457823,44.51330013099432,0.5168812018278293,0.055271093192812724,0.19321642657837138,0.0327234724707926,0.37129169356117375,0.028740431970782982,0.4366921951606552
34,6,23,1,False,soft,f,23,2022-11-10 08:22:05.219727,results/221110_08.22_data_subj6_block1_trial23.csv,E032,2,440.0,260.0,700.0,False,9.114,47,221110,8,22,5.6433999999999065,6.516800000000047,41.445247274767766,48.13150993894386,0.44806478074245465,0.03384831741172698,0.428682525198489,0.0336082464844011,0.9622305149391279,0.10238894792217412,1.4654382831911312
35,6,24,1,False,soft,f,23,2022-11-10 08:22:05.219727,results/221110_08.22_data_subj6_block1_trial24.csv,E025,1,320.0,140.0,460.0,True,9.431,48,221110,8,22,2.593600000000093,3.8466000000000933,40.72036068578511,35.47752079276164,0.5402119182610623,0.031688020207060276,0.2519530945824915,0.03268475950584264,0.46551757232031893,0.047215622565916646,0.5542089270103346
36,6,24,1,False,soft,f,23,2022-11-10 08:22:05.219727,results/221110_08.22_data_subj6_block1_trial24.csv,E015,2,560.0,140.0,700.0,False,9.431,49,221110,8,22,6.2716000000000935,6.978800000000047,31.990430611400463,46.46777919555754,0.5874038231743268,0.07283607784776774,0.42935948399638013,0.0621196962848349,0.7298158382335295,0.046708620762206964,1.1970417666014028
37,6,0,2,False,soft,f,23,2022-11-10 08:22:05.219727,results/221110_08.22_data_subj6_block2_trial0.csv,E007,1,200.0,20.0,220.0,True,9.213,50,221110,8,22,2.9478000000000466,3.832,34.350258623252685,39.90981649961615,0.1823305571438798,0.024351987966727606,0.3928579804384792,0.07119348055190378,2.2012155040165267,0.5304116400581004,0.5589445165597837
38,6,0,2,False,soft,f,23,2022-11-10 08:22:05.219727,results/221110_08.22_data_subj6_block2_trial0.csv,E010,2,500.0,80.0,580.0,False,9.213,51,221110,8,22,6.587199999999953,7.243399999999907,40.700498807137535,60.31266027983347,0.20870779169399942,0.04071074641157471,0.48337921402061207,0.10388889986933655,2.3370214544683545,0.41994204685120246,1.4364386150802526
39,6,2,2,False,soft,f,23,2022-11-10 08:22:05.219727,results/221110_08.22_data_subj6_block2_trial2.csv,E043,1,320.0,260.0,580.0,False,9.414,52,221110,8,22,2.776399999999907,3.9968000000000465,42.88876978587831,37.73223970763879,0.3534612624634743,0.02213698705347602,0.34459575649632906,0.05820722826536077,0.9705030492882588,0.12651724672011697,0.871180198906633
40,6,3,2,False,soft,f,23,2022-11-10 08:22:05.219727,results/221110_08.22_data_subj6_block2_trial3.csv,E020,1,140.0,50.0,190.0,False,9.145,54,221110,8,22,2.5414000000001398,3.7754000000001398,46.174834144909724,38.25765267261537,0.5012406638180394,0.02634112000743266,0.2934860271355845,0.025912561678499434,0.5871815846599723,0.060534158052664475,1.0756428648655334
41,6,3,2,False,soft,f,23,2022-11-10 08:22:05.219727,results/221110_08.22_data_subj6_block2_trial3.csv,E075,2,20.0,20.0,40.0,True,9.145,55,221110,8,22,6.138800000000047,6.86,24.977863108356864,36.189740546909896,0.6312614989823709,0.040792374624182615,0.2917419478172157,0.02121060988313503,0.4620031098553865,0.010939774063558257,0.682091360045111
42,6,4,2,False,soft,f,23,2022-11-10 08:22:05.219727,results/221110_08.22_data_subj6_block2_trial4.csv,E038,1,110.0,80.0,190.0,False,9.298,56,221110,8,22,2.3568000000000464,3.5174000000001397,41.903185423465466,38.271261048231935,0.46044956938687437,0.041273016984043676,0.24177865434587106,0.03881760022336286,0.522498705107118,0.05364376401295899,0.7587245835065171
43,6,4,2,False,soft,f,23,2022-11-10 08:22:05.219727,results/221110_08.22_data_subj6_block2_trial4.csv,E074,2,110.0,50.0,160.0,True,9.298,57,221110,8,22,5.882199999999953,7.156800000000047,40.811538562494015,33.15272910176674,0.5186063861432919,0.0231509081123243,0.29043884814549376,0.018455032886533895,0.5605710585876448,0.03532340405372664,0.6527325377749802
44,6,5,2,False,soft,f,23,2022-11-10 08:22:05.219727,results/221110_08.22_data_subj6_block2_trial5.csv,E035,1,170.0,110.0,280.0,True,9.708,58,221110,8,22,2.6095999999996273,4.086199999999721,42.44354324385801,29.42452473824434,0.5857526563092369,0.04614895707115731,0.3731278552724846,0.03165523107069395,0.6394242365903186,0.057148896983447585,1.0404710374813897
45,6,6,2,False,soft,f,23,2022-11-10 08:22:05.219727,results/221110_08.22_data_subj6_block2_trial6.csv,E077,1,110.0,110.0,220.0,False,10.131,60,221110,8,22,2.5841999999997207,3.9325999999996273,42.39662620369248,33.139715284365444,0.5320636548321483,0.06506740194129759,0.1653345432812195,0.02398134079636081,0.31014145222515066,0.01283819721737015,0.5342195057474735
46,6,6,2,False,soft,f,23,2022-11-10 08:22:05.219727,results/221110_08.22_data_subj6_block2_trial6.csv,E064,2,50.0,140.0,190.0,True,10.131,61,221110,8,22,6.36119999999972,7.703399999999907,46.1760070582147,36.51649482197255,0.6182019045175797,0.04167561727816066,0.28869875987995336,0.026325001715111124,0.4666925591886255,0.023702428717948632,0.8744435891310544
47,6,7,2,False,soft,f,23,2022-11-10 08:22:05.219727,results/221110_08.22_data_subj6_block2_trial7.csv,E010,1,500.0,80.0,580.0,False,10.513,62,221110,8,22,2.2085999999996275,3.7475999999996277,41.49607978961916,28.94177205858692,0.4712783526667057,0.04203178036507838,0.4033923906413102,0.04702586789955026,0.8638613584633094,0.13290712385878498,0.5472786708890773
48,6,8,2,False,soft,f,23,2022-11-10 08:22:05.219727,results/221110_08.22_data_subj6_block2_trial8.csv,E073,1,797.0,116.0,913.0,True,10.414,64,221110,8,22,2.5661999999997205,3.9831999999997207,38.72746520940288,28.74649619169025,0.6305932539876413,0.035444301523414184,0.2828085657478846,0.06131864401007235,0.44689200914225996,0.0860023918104494,0.43023737449369764
49,6,8,2,False,soft,f,23,2022-11-10 08:22:05.219727,results/221110_08.22_data_subj6_block2_trial8.csv,E006,2,260.0,20.0,280.0,False,10.414,65,221110,8,22,7.223799999999814,8.66119999999972,39.27166188413285,27.072879691294805,0.3907307281936675,0.04300702301813871,0.4865440459779249,0.059061829797449464,1.2444555034708624,0.06247229240949895,1.1343764478855696
50,6,9,2,False,soft,f,23,2022-11-10 08:22:05.219727,results/221110_08.22_data_subj6_block2_trial9.csv,E076,1,50.0,50.0,100.0,True,10.361,66,221110,8,22,3.3017999999998136,4.918799999999814,41.51949180299778,26.226378208508592,0.6217967538468517,0.044835145972146724,0.21579996366005672,0.02073418282423556,0.3465873328486712,0.013928335223327017,0.4646629366287447
51,6,9,2,False,soft,f,23,2022-11-10 08:22:05.219727,results/221110_08.22_data_subj6_block2_trial9.csv,E015,2,560.0,140.0,700.0,False,10.361,67,221110,8,22,7.220499999999767,8.559399999999908,38.82407075202522,30.431136189341856,0.6033039087197222,0.04660032508812204,0.3520233066364353,0.03895291223648891,0.5841344205031727,0.05799369312463473,1.1986770683829953
52,6,10,2,False,soft,f,23,2022-11-10 08:22:05.219727,results/221110_08.22_data_subj6_block2_trial10.csv,E074,1,110.0,50.0,160.0,True,9.848,68,221110,8,22,2.932,3.9325999999996273,38.52188171833265,41.00687668526625,0.5715827093171699,0.02641160948699387,0.2243108199848544,0.027921697520248975,0.39274925051942866,0.04772698875923678,0.4991775453373189
53,6,10,2,False,soft,f,23,2022-11-10 08:22:05.219727,results/221110_08.22_data_subj6_block2_trial10.csv,E031,2,140.0,80.0,220.0,False,9.848,69,221110,8,22,6.837,7.465599999999627,23.175755693455482,35.56556527600031,0.5820065001155095,0.05055715491305036,0.41067441219752443,0.0578536146963272,0.7037603777233079,0.06132849121171264,2.903442702173628
54,6,11,2,False,soft,f,23,2022-11-10 08:22:05.219727,results/221110_08.22_data_subj6_block2_trial11.csv,E071,1,20.0,260.0,280.0,False,10.081,70,221110,8,22,3.094399999999907,4.352599999999628,36.02804836296093,30.662909140871996,0.5248234009284699,0.09139266074933357,0.24717255179872885,0.04607949919778425,0.4710770504880398,0.0394959375654464,1.8090744155405938
55,6,11,2,False,soft,f,23,2022-11-10 08:22:05.219727,results/221110_08.22_data_subj6_block2_trial11.csv,E043,2,320.0,260.0,580.0,True,10.081,71,221110,8,22,6.581799999999814,7.1511999999997204,14.132738868394258,26.36091020908907,0.5548080669654841,0.01701038187730509,0.3816547251550039,0.04192461922582878,0.687418217465093,0.06827232763217085,0.9001289224698396
56,6,12,2,False,soft,f,23,2022-11-10 08:22:05.219727,results/221110_08.22_data_subj6_block2_trial12.csv,E079,1,50.0,110.0,160.0,True,9.514,72,221110,8,22,3.023399999999907,4.1461999999997206,36.631898031610305,33.984336029172624,0.5301600754425537,0.03710641697782271,0.24720252721841393,0.03166393397266008,0.4647108872537958,0.03414545821043095,1.05073352091095
57,6,12,2,False,soft,f,23,2022-11-10 08:22:05.219727,results/221110_08.22_data_subj6_block2_trial12.csv,E024,2,500.0,200.0,700.0,False,9.514,73,221110,8,22,6.306199999999721,7.447199999999721,44.458091710259026,39.80637787718974,0.5070864645864669,0.022010935400818506,0.4960149625872209,0.06425374100348802,0.9763926344408913,0.1001016431016913,1.7626735108053018
58,6,13,2,False,soft,f,23,2022-11-10 08:22:05.219727,results/221110_08.22_data_subj6_block2_trial13.csv,E051,1,140.0,170.0,310.0,True,9.64,74,221110,8,22,2.9827999999998136,4.287799999999813,38.13776895710984,28.02184282980236,0.6731383097547814,0.041326802832530145,0.32292616217845505,0.03328371442134455,0.48007659278119336,0.04328483712765798,0.575710098133002
59,6,14,2,False,soft,f,23,2022-11-10 08:22:05.219727,results/221110_08.22_data_subj6_block2_trial14.csv,E010,1,500.0,80.0,580.0,True,9.279,76,221110,8,22,2.901399999999907,4.14,43.87124062364257,34.254531737073336,0.4489093912398351,0.030540818992962123,0.3427455084775056,0.051703162836580184,0.7626247996765945,0.09530746364058452,0.6668571128122405
60,6,14,2,False,soft,f,23,2022-11-10 08:22:05.219727,results/221110_08.22_data_subj6_block2_trial14.csv,E052,2,260.0,320.0,580.0,False,9.279,77,221110,8,22,6.318399999999907,7.459399999999907,43.414499298402866,38.802710648155,0.5656243694098745,0.04645364102282281,0.3655228748461392,0.03583440625693178,0.6489681913138685,0.07031323004468408,1.1739805549296496
61,6,15,2,False,soft,f,23,2022-11-10 08:22:05.219727,results/221110_08.22_data_subj6_block2_trial15.csv,E052,1,260.0,320.0,580.0,False,9.413,78,221110,8,22,2.5475999999996275,3.706799999999814,42.73259607511348,39.37700627009401,0.5757938245489997,0.047540530808701874,0.2592283575279603,0.03991077945548285,0.4509429071622826,0.06536181723132999,0.9393647283569367
62,6,15,2,False,soft,f,23,2022-11-10 08:22:05.219727,results/221110_08.22_data_subj6_block2_trial15.csv,E001,2,560.0,20.0,580.0,True,9.413,79,221110,8,22,5.8241999999997205,6.977399999999907,47.02830357015023,39.89675161949688,0.3355058386096537,0.051416289273081214,0.5541079426023612,0.047253303493361626,1.6833407158705473,0.24524789758318422,0.6878996534323891
63,6,16,2,False,soft,f,23,2022-11-10 08:22:05.219727,results/221110_08.22_data_subj6_block2_trial16.csv,E036,1,380.0,260.0,640.0,False,9.615,80,221110,8,22,2.7305999999996273,3.8471999999997206,37.45552353372679,36.42123583639889,0.4582885806604007,0.05810800818593146,0.34883702297668084,0.04977903755137068,0.773069831555125,0.14534036373740364,1.3074411761690403
64,6,16,2,False,soft,f,23,2022-11-10 08:22:05.219727,results/221110_08.22_data_subj6_block2_trial16.csv,E005,2,380.0,20.0,400.0,True,9.615,81,221110,8,22,6.525799999999814,7.178799999999813,23.0566055400121,36.8456369463384,0.2991246312842564,0.012759460856618495,0.3132957938808612,0.016095785156340515,1.0476386021464068,0.03782270552890513,1.1370703734522503
65,6,17,2,False,soft,f,23,2022-11-10 08:22:05.219727,results/221110_08.22_data_subj6_block2_trial17.csv,E077,1,110.0,110.0,220.0,False,8.898,82,221110,8,22,2.0257999999998137,3.343799999999814,39.673989866362795,33.565985754324885,0.46202072183015697,0.044084097990061084,0.13888109512213329,0.013860446389054154,0.3006859064306591,0.011420717359501653,0.48400868175371914
66,6,17,2,False,soft,f,23,2022-11-10 08:22:05.219727,results/221110_08.22_data_subj6_block2_trial17.csv,E010,2,500.0,80.0,580.0,True,8.898,83,221110,8,22,5.415599999999627,6.918,46.79914883146441,32.05450576978458,0.3194898844806555,0.03226171577899945,0.309591461714355,0.05335710082095389,0.971477052907589,0.1647032070065545,0.6302740614122195
67,6,18,2,False,soft,f,23,2022-11-10 08:22:05.219727,results/221110_08.22_data_subj6_block2_trial18.csv,E009,1,560.0,80.0,640.0,False,9.763,84,221110,8,22,2.81,3.944799999999814,36.11153747567201,34.321608483264725,0.5704121376888757,0.059945655524223186,0.3143952377655688,0.03384040100156214,0.5534272121075872,0.05237654051932605,0.6613719748984728
68,6,18,2,False,soft,f,23,2022-11-10 08:22:05.219727,results/221110_08.22_data_subj6_block2_trial18.csv,E023,2,200.0,80.0,280.0,True,9.763,85,221110,8,22,6.428199999999721,7.422799999999814,37.51363289899514,39.01675996553392,0.47452442148632457,0.04649358937626281,0.32185313553566114,0.02981231976189974,0.681923050921825,0.0648857704501502,1.714853259498155
69,6,19,2,False,soft,f,23,2022-11-10 08:22:05.219727,results/221110_08.22_data_subj6_block2_trial19.csv,E007,1,200.0,20.0,220.0,False,10.031,86,221110,8,22,2.6837999999998137,4.155,42.4642439580384,29.69680680259965,0.42548022522784495,0.048701415805011354,0.3762912300268063,0.02453739124732812,0.8938504039617089,0.09970831402997524,0.46590709456172885
70,6,19,2,False,soft,f,23,2022-11-10 08:22:05.219727,results/221110_08.22_data_subj6_block2_trial19.csv,E058,2,50.0,80.0,130.0,True,10.031,87,221110,8,22,6.200399999999907,6.679799999999814,11.135617438602646,23.477178715493956,0.4801429255570073,0.04664981343497029,0.25657503241173,0.030629623563330415,0.5333118364598524,0.01715645298683736,0.8508503985581796
71,6,20,2,False,soft,f,23,2022-11-10 08:22:05.219727,results/221110_08.22_data_subj6_block2_trial20.csv,E039,1,440.0,320.0,760.0,False,11.031,88,221110,8,22,2.4577999999998137,3.8611999999997204,39.77699916998705,30.3120405556331,0.5310195801651908,0.046962410654648484,0.3060934494516552,0.07512218127686017,0.5691857250179957,0.09586116449269093,0.901586448094204
72,6,20,2,False,soft,f,23,2022-11-10 08:22:05.219727,results/221110_08.22_data_subj6_block2_trial20.csv,E010,2,500.0,80.0,580.0,True,11.031,89,221110,8,22,7.054399999999907,8.47119999999972,48.30446295422097,34.46376513549571,0.3010201020167236,0.03407522561508847,0.4122564821490513,0.037967133182248834,1.3806922476058718,0.15092485505424968,1.3585618511959088
73,6,21,2,False,soft,f,23,2022-11-10 08:22:05.219727,results/221110_08.22_data_subj6_block2_trial21.csv,E002,1,500.0,20.0,520.0,True,10.247,90,221110,8,22,2.498399999999907,3.9491999999997205,41.927338536759294,28.118338384403337,0.3458918697776372,0.027196157146249178,0.2980927611434011,0.05220396137956456,0.8598367521190886,0.12227514989139222,0.46820473927641115
74,6,21,2,False,soft,f,23,2022-11-10 08:22:05.219727,results/221110_08.22_data_subj6_block2_trial21.csv,E015,2,560.0,140.0,700.0,False,10.247,91,221110,8,22,6.498399999999907,7.732399999999907,38.23580759827121,32.84140629586724,0.4017353976198961,0.05504325393726335,0.42586493097211603,0.04888474245719374,1.0691223566121077,0.11507584763091112,1.1461102585156568
75,6,22,2,False,soft,f,23,2022-11-10 08:22:05.219727,results/221110_08.22_data_subj6_block2_trial22.csv,E040,1,260.0,200.0,460.0,True,10.031,92,221110,8,22,2.517,3.5725999999996274,38.7861893337888,37.557879460370806,0.5409185625279923,0.021973054646012586,0.2374751226137233,0.02239142837252417,0.4392572629535039,0.04005738710521989,0.6672988385281736
76,6,22,2,False,soft,f,23,2022-11-10 08:22:05.219727,results/221110_08.22_data_subj6_block2_trial22.csv,E054,2,200.0,260.0,460.0,False,10.031,93,221110,8,22,6.312399999999907,7.538799999999814,43.76524574451361,37.17259641779539,0.6753006953426005,0.07460968943072908,0.3117659519288296,0.04751190029849647,0.4596521898284509,0.02358974022910854,1.0999019845613986
77,6,23,2,False,soft,f,23,2022-11-10 08:22:05.219727,results/221110_08.22_data_subj6_block2_trial23.csv,E013,1,80.0,20.0,100.0,True,9.913,94,221110,8,22,2.645200000000186,3.4812000000001864,33.82914950840436,44.37795999112616,0.5648665346765467,0.06642563703853482,0.26257502954103845,0.0372800421938805,0.4639445256451333,0.02212848526463671,0.593208365712055
78,6,23,2,False,soft,f,23,2022-11-10 08:22:05.219727,results/221110_08.22_data_subj6_block2_trial23.csv,E069,2,20.0,140.0,160.0,False,9.913,95,221110,8,22,6.153600000000093,7.117799999999813,27.084411426820644,26.803326187805958,0.6606834455918418,0.06920194463024702,0.2486085306822194,0.028632021208148988,0.37603751469752256,0.011709709918535802,1.1318114164110504
79,6,24,2,False,soft,f,23,2022-11-10 08:22:05.219727,results/221110_08.22_data_subj6_block2_trial24.csv,E081,1,107.0,210.0,317.0,False,11.049,96,221110,8,22,2.7783999999999067,4.153399999999907,38.34684656878161,29.50884112414221,0.7107481019664249,0.047587627548910466,0.2599289750864719,0.03759972037917358,0.3643155785474186,0.03634961310761735,0.6898643785056633
80,6,24,2,False,soft,f,23,2022-11-10 08:22:05.219727,results/221110_08.22_data_subj6_block2_trial24.csv,E025,2,320.0,140.0,460.0,True,11.049,97,221110,8,22,7.2855999999996275,8.668599999999627,39.915772740097744,30.268772493565667,0.4206004569323159,0.0647587326537685,0.3722029344217307,0.05621404201261858,0.8896107123703711,0.08472030919883373,2.706505805419455
81,6,0,3,False,soft,f,23,2022-11-10 08:22:05.219727,results/221110_08.22_data_subj6_block3_trial0.csv,E038,1,110.0,80.0,190.0,True,11.512,98,221110,8,22,3.5017999999998137,4.817,42.000956253989216,34.744254243588465,0.3345593702741561,0.02566150177928145,0.2863897341155724,0.034157259582086354,0.862158440478227,0.12997762732259807,0.7543510211835718
82,6,0,3,False,soft,f,23,2022-11-10 08:22:05.219727,results/221110_08.22_data_subj6_block3_trial0.csv,E071,2,20.0,260.0,280.0,False,11.512,99,221110,8,22,7.651,9.040799999999814,44.26110465672404,33.55691784573259,0.36886676467563173,0.06238440309207067,0.25876922275301745,0.04772736839329418,0.7018102374394184,0.05561357138341,1.536157582296413
83,6,1,3,False,soft,f,23,2022-11-10 08:22:05.219727,results/221110_08.22_data_subj6_block3_trial1.csv,E059,1,80.0,140.0,220.0,True,11.396,100,221110,8,22,3.179,4.672,42.41966763852668,30.874187595042912,0.4823775956578628,0.034093425903292424,0.21459070999544255,0.024384364506886913,0.443932636976176,0.028104016711841835,0.7038168036816391
84,6,2,3,False,soft,f,23,2022-11-10 08:22:05.219727,results/221110_08.22_data_subj6_block3_trial2.csv,E081,1,107.0,210.0,317.0,True,10.396,102,221110,8,22,3.1695999999996274,4.3627999999998135,40.91854518819588,35.646613568278774,0.609799620057463,0.019464319281289114,0.15773590531138562,0.015220219789706365,0.2587939663911278,0.025040799660601763,0.741841541510316
85,6,2,3,False,soft,f,23,2022-11-10 08:22:05.219727,results/221110_08.22_data_subj6_block3_trial2.csv,E048,2,170.0,170.0,340.0,False,10.396,103,221110,8,22,6.966199999999721,7.881399999999907,42.51129773077865,48.872822212478056,0.5499345896161609,0.08019375904736006,0.27611204011568,0.046148735436344616,0.5012436620193377,0.03574240928942756,0.9032635156712112
86,6,3,3,False,soft,f,23,2022-11-10 08:22:05.219727,results/221110_08.22_data_subj6_block3_trial3.csv,E025,1,320.0,140.0,460.0,True,9.898,104,221110,8,22,3.0355999999996275,3.8777999999998136,33.339002201494644,42.12030799236406,0.5152943108132001,0.030130850599215313,0.2833997987883476,0.04234078719229112,0.5481716917976746,0.06170777260576782,0.6274089067023306
87,6,3,3,False,soft,f,23,2022-11-10 08:22:05.219727,results/221110_08.22_data_subj6_block3_trial3.csv,E032,2,440.0,260.0,700.0,False,9.898,105,221110,8,22,6.5501999999997205,7.807199999999721,47.25375872981241,40.64538890769464,0.4966593770242452,0.021288454949959824,0.45431417521957795,0.053789763875407744,0.9163782518878079,0.11559098710284389,0.7713580110577369
88,6,4,3,False,soft,f,23,2022-11-10 08:22:05.219727,results/221110_08.22_data_subj6_block3_trial4.csv,E036,1,380.0,260.0,640.0,False,10.263,106,221110,8,22,3.1455999999996274,4.494,41.438763146310094,33.04112111194135,0.523515532173612,0.046664542280491675,0.34955812493575555,0.051801881521622996,0.6722373669472226,0.11274951000523846,0.8492761976989619
89,6,4,3,False,soft,f,23,2022-11-10 08:22:05.219727,results/221110_08.22_data_subj6_block3_trial4.csv,E037,2,380.0,260.0,640.0,True,10.263,107,221110,8,22,6.562399999999907,7.758399999999907,44.440851089983624,37.9041189594965,0.44405513512650957,0.03364164433301401,0.4811723470154368,0.06905548806917457,1.087680550026717,0.1583087559594198,1.521833058403993
90,6,5,3,False,soft,f,23,2022-11-10 08:22:05.219727,results/221110_08.22_data_subj6_block3_trial5.csv,E080,1,106.0,610.0,716.0,False,10.397,108,221110,8,22,2.634,3.922199999999721,40.15765731340141,33.70209559774766,0.6466190298893191,0.07078683544498572,0.26105252893984915,0.0418888768942521,0.40169251552798263,0.027166535672977624,0.9772799066736911
91,6,5,3,False,soft,f,23,2022-11-10 08:22:05.219727,results/221110_08.22_data_subj6_block3_trial5.csv,E042,2,380.0,320.0,700.0,True,10.397,109,221110,8,22,5.840799999999814,7.36619999999972,44.85408402202614,31.170682449171142,0.6136835561310695,0.04758681568258502,0.32449755818643855,0.04450526547399332,0.5271237050418991,0.044935287206559815,0.927709305545306
92,6,6,3,False,soft,f,23,2022-11-10 08:22:05.219727,results/221110_08.22_data_subj6_block3_trial6.csv,E003,1,440.0,20.0,460.0,True,10.566,110,221110,8,22,3.19,4.620399999999907,43.96682509856318,31.687592439593015,0.37500523032016403,0.029415748732843097,0.3029067171228738,0.04912074440065184,0.8045781601956294,0.08898950396786194,0.49929654074731356
93,6,6,3,False,soft,f,23,2022-11-10 08:22:05.219727,results/221110_08.22_data_subj6_block3_trial6.csv,E071,2,20.0,260.0,280.0,False,10.566,111,221110,8,22,6.532399999999907,7.725599999999628,40.980936853435026,34.90138859644907,0.4795424640124369,0.04416649103865195,0.3053853790522454,0.02497876775907401,0.6404366581248281,0.060570520025238814,1.6945098709816084
94,6,7,3,False,soft,f,23,2022-11-10 08:22:05.219727,results/221110_08.22_data_subj6_block3_trial7.csv,E036,1,380.0,260.0,640.0,False,11.964,112,221110,8,22,2.8353999999999067,4.356799999999814,42.63008085712252,29.416484273552012,0.44381331437661986,0.02959474196040506,0.3247768390982371,0.06618928612340313,0.7367996376230199,0.16820563622993934,0.630498810687628
95,6,7,3,False,soft,f,23,2022-11-10 08:22:05.219727,results/221110_08.22_data_subj6_block3_trial7.csv,E056,2,110.0,170.0,280.0,True,11.964,113,221110,8,22,6.732399999999907,7.952600000000093,42.05956336296052,35.76357209769038,0.47651625785719653,0.04120802476695827,0.3095400367044406,0.026855048435412476,0.6498954697627108,0.019962429864976986,0.7767509623651149
96,6,8,3,False,soft,f,23,2022-11-10 08:22:05.219727,results/221110_08.22_data_subj6_block3_trial8.csv,E078,1,80.0,110.0,190.0,True,12.347,114,221110,8,22,3.217,4.62719999999972,42.931917870563794,31.72460755720061,0.6036600552038588,0.0534545773958097,0.2882876985334997,0.04401121874740944,0.4747396388766899,0.03707724406633689,0.585441347263749
97,6,8,3,False,soft,f,23,2022-11-10 08:22:05.219727,results/221110_08.22_data_subj6_block3_trial8.csv,E036,2,380.0,260.0,640.0,False,12.347,115,221110,8,22,6.864599999999627,7.874599999999628,42.718166066088855,44.23974651834044,0.6353880826527664,0.018630524756383184,0.6104372153720086,0.10190162390462446,0.9582835357609565,0.14232170781329406,1.3383447624015388
98,6,9,3,False,soft,f,23,2022-11-10 08:22:05.219727,results/221110_08.22_data_subj6_block3_trial9.csv,E026,1,440.0,200.0,640.0,False,11.963,116,221110,8,22,3.257799999999814,4.7695999999996275,47.094121399454245,33.22154269882017,0.5565020284249219,0.022283480952373938,0.508612350656673,0.05424012323583139,0.9158235304004922,0.10710749562404676,1.0971437322827162
99,6,9,3,False,soft,f,23,2022-11-10 08:22:05.219727,results/221110_08.22_data_subj6_block3_trial9.csv,E003,2,440.0,20.0,460.0,True,11.963,117,221110,8,22,7.067799999999814,7.8881999999997205,32.14519677546715,40.62515748542683,0.37355860338568575,0.022195734589998628,0.6078767792433981,0.09720668826871315,1.621861921701617,0.20359794269380097,1.8946191328602746
100,6,11,3,False,soft,f,23,2022-11-10 08:22:05.219727,results/221110_08.22_data_subj6_block3_trial11.csv,E054,1,200.0,260.0,460.0,False,12.229,118,221110,8,22,3.6407999999998135,4.739,33.767581544489545,29.06063129760891,0.7067223572452449,0.0240814165254711,0.548339041269079,0.05646483274072858,0.7751862283609557,0.0690792629940862,0.7471305987777226
101,6,11,3,False,soft,f,23,2022-11-10 08:22:05.219727,results/221110_08.22_data_subj6_block3_trial11.csv,E033,2,80.0,50.0,130.0,True,12.229,119,221110,8,22,7.187799999999814,8.554599999999628,40.74948598747015,30.413396069290588,0.510700916913097,0.026109684096417125,0.777516152112318,0.046549762196659294,1.525712768724383,0.10767867901934598,0.934732960683914
102,6,12,3,False,soft,f,23,2022-11-10 08:22:05.219727,results/221110_08.22_data_subj6_block3_trial12.csv,E062,1,140.0,320.0,460.0,False,10.463,120,221110,8,22,2.7967999999998137,3.895,42.821387836982645,39.48712040968848,0.7269132927180629,0.10407742361165292,0.3798865565513055,0.0825953078719956,0.5174647101538293,0.04287950287486173,1.206728327853336
103,6,12,3,False,soft,f,23,2022-11-10 08:22:05.219727,results/221110_08.22_data_subj6_block3_trial12.csv,E037,2,200.0,140.0,340.0,True,10.463,121,221110,8,22,5.962799999999814,6.952599999999627,35.97947792337549,38.84658200637851,0.5200660027794687,0.018495185333388446,0.598530026953133,0.06760372976785604,1.149508714630826,0.10923093281604872,2.948934702425481
104,6,13,3,False,soft,f,23,2022-11-10 08:22:05.219727,results/221110_08.22_data_subj6_block3_trial13.csv,E074,1,110.0,50.0,160.0,False,11.697,122,221110,8,22,3.3967999999998137,4.698399999999907,39.67476342246586,32.224752392556034,0.8684481069846767,0.04876781378150118,0.3873208698281327,0.05477880506047633,0.44441843718817736,0.045497135750306894,0.4848904762811955
105,6,13,3,False,soft,f,23,2022-11-10 08:22:05.219727,results/221110_08.22_data_subj6_block3_trial13.csv,E058,2,50.0,80.0,130.0,True,11.697,123,221110,8,22,6.8867999999998135,8.22919999999972,39.132459202427796,29.06488797692593,0.9572488430814897,0.04801318227606326,0.49839685791593186,0.03915537317221935,0.5203572686808552,0.028399719421449417,1.0502748259202719
106,6,14,3,False,soft,f,23,2022-11-10 08:22:05.219727,results/221110_08.22_data_subj6_block3_trial14.csv,E029,1,380.0,200.0,580.0,True,9.447,124,221110,8,22,2.7525999999996276,3.7343999999999067,43.074316912015306,47.18797645876177,0.7164989047236205,0.03743788760820724,0.45264314991792287,0.06681961796057419,0.630468399312426,0.08077780975108341,0.8213515692794906
107,6,14,3,False,soft,f,23,2022-11-10 08:22:05.219727,results/221110_08.22_data_subj6_block3_trial14.csv,E028,2,500.0,260.0,760.0,False,9.447,125,221110,8,22,5.73019999999972,6.722799999999814,42.79193760200834,45.24610425549788,0.6304384054481884,0.05407410744268618,0.5630726348931723,0.07857197230220024,0.8932909849323704,0.10666508172489604,1.3426558062599177
108,6,15,3,False,soft,f,23,2022-11-10 08:22:05.219727,results/221110_08.22_data_subj6_block3_trial15.csv,E010,1,500.0,80.0,580.0,False,11.213,126,221110,8,22,3.282799999999814,4.299799999999814,36.59686519356041,36.33539330816568,0.34251574235405013,0.03232376020717363,0.5212965682180796,0.02940644076038396,1.5324635238570068,0.14171263644103743,0.5866638326054342
109,6,15,3,False,soft,f,23,2022-11-10 08:22:05.219727,results/221110_08.22_data_subj6_block3_trial15.csv,E011,2,500.0,80.0,580.0,True,11.213,127,221110,8,22,6.48819999999972,7.212399999999906,30.670179010672648,43.63910594627985,0.3752261407136449,0.021302844722100412,0.3680357720702851,0.028982015784970117,0.9815827712980276,0.06662028170323193,1.13924613942818
110,6,16,3,False,soft,f,23,2022-11-10 08:22:05.219727,results/221110_08.22_data_subj6_block3_trial16.csv,E052,1,260.0,320.0,580.0,False,13.077,128,221110,8,22,3.7465999999996273,4.755399999999907,36.22412198807602,40.00727243231577,0.7391226536197297,0.049329701678905595,0.44320669336003377,0.05938185042229658,0.5993289837411806,0.06880607849032352,0.7959928418999431
111,6,16,3,False,soft,f,23,2022-11-10 08:22:05.219727,results/221110_08.22_data_subj6_block3_trial16.csv,E023,2,200.0,80.0,280.0,True,13.077,129,221110,8,22,7.798,8.457,24.43865384221268,39.98824395414587,0.4833106760581788,0.04826274466264064,0.5152237792887178,0.05579022051797845,1.0656497008640995,0.03362780446530414,2.777554907878819
112,6,17,3,False,soft,f,23,2022-11-10 08:22:05.219727,results/221110_08.22_data_subj6_block3_trial17.csv,E066,1,50.0,170.0,220.0,True,12.747,130,221110,8,22,3.5675999999996275,4.755399999999907,38.711865929129345,35.07751994373872,0.5155309913549706,0.04036728359330785,0.3196469969849747,0.028771618762400288,0.6206489491764737,0.04297405014229234,0.8812971574377189
113,6,17,3,False,soft,f,23,2022-11-10 08:22:05.219727,results/221110_08.22_data_subj6_block3_trial17.csv,E006,2,260.0,20.0,280.0,False,12.747,131,221110,8,22,8.22119999999972,9.417,41.53408521034176,34.08202738478951,0.2595349332009719,0.02216765341356994,0.6258489913991954,0.10484196891108619,2.407480251341942,0.3211558558340352,0.8099722919966129
114,6,18,3,False,soft,f,23,2022-11-10 08:22:05.219727,results/221110_08.22_data_subj6_block3_trial18.csv,E074,1,110.0,50.0,160.0,True,16.078,132,221110,8,22,5.5037999999998135,6.406799999999814,34.63900724623693,38.47025035208401,0.43983530156635076,0.019991752386029737,0.38799966281213644,0.040849260722594684,0.8818707373119442,0.08040519217325562,1.2437727744299587
115,6,19,3,False,soft,f,23,2022-11-10 08:22:05.219727,results/221110_08.22_data_subj6_block3_trial19.csv,E071,1,20.0,260.0,280.0,False,13.63,134,221110,8,22,3.893,5.186599999999627,41.5997570405897,32.896175808982086,0.5652064660175148,0.06299518598226532,0.5171062560256745,0.04419022636876621,0.9306210446246531,0.15964209153877923,1.4963746523172037
116,6,19,3,False,soft,f,23,2022-11-10 08:22:05.219727,results/221110_08.22_data_subj6_block3_trial19.csv,E031,2,140.0,80.0,220.0,True,13.63,135,221110,8,22,8.554599999999628,9.96219999999972,45.72886291792342,33.607036938475545,0.4643437352901271,0.040435396079618886,0.7398867189007075,0.07475626959104435,1.6064638263587658,0.21648830652907367,1.0568157426312357
117,6,20,3,False,soft,f,23,2022-11-10 08:22:05.219727,results/221110_08.22_data_subj6_block3_trial20.csv,E001,1,560.0,20.0,580.0,True,13.23,136,221110,8,22,3.478,4.975,43.50168156393208,29.899730480251996,0.5511147173115511,0.06171070344356268,0.5702031510898478,0.1261798007313405,1.0223893234158472,0.1339543609860105,0.3344395972118421
118,6,20,3,False,soft,f,23,2022-11-10 08:22:05.219727,results/221110_08.22_data_subj6_block3_trial20.csv,E063,2,80.0,200.0,280.0,False,13.23,137,221110,8,22,8.587200000000186,9.913399999999442,36.409365627121474,29.013519693351423,0.6510370484402107,0.074097335703642,0.4069501668303328,0.06927698536824207,0.6215000983237016,0.04349840717187812,0.6953189573396569
119,6,21,3,False,soft,f,23,2022-11-10 08:22:05.219727,results/221110_08.22_data_subj6_block3_trial21.csv,E075,1,20.0,20.0,40.0,True,11.097,138,221110,8,22,3.366200000000186,4.417,32.05260393773892,32.75170316433591,0.7347418999715467,0.0723873070210597,0.3398408444757634,0.05520322739186743,0.4598894016265847,0.03320107980299729,0.37318479138558186
120,6,21,3,False,soft,f,23,2022-11-10 08:22:05.219727,results/221110_08.22_data_subj6_block3_trial21.csv,E072,2,20.0,320.0,340.0,False,11.097,139,221110,8,22,7.345799999999814,8.261200000000187,37.52273473333744,42.71659020465143,0.5445081902192509,0.051088081160604946,0.2891939048759709,0.03048944836013879,0.5377674734118221,0.08882915570481147,1.523593790334019
121,6,22,3,False,soft,f,23,2022-11-10 08:22:05.219727,results/221110_08.22_data_subj6_block3_trial22.csv,E026,1,440.0,200.0,640.0,False,13.397,140,221110,8,22,3.6325999999996275,5.324799999999814,40.66947578665599,25.31517116137995,0.44418520902269243,0.04250879233512954,0.590743502932879,0.08857633292574336,1.3332095177547678,0.1832443132434422,0.39829120132392354
122,6,22,3,False,soft,f,23,2022-11-10 08:22:05.219727,results/221110_08.22_data_subj6_block3_trial22.csv,E015,2,560.0,140.0,700.0,True,13.397,141,221110,8,22,8.188599999999628,9.490200000000186,41.36522368853473,32.75049724597808,0.36934792826857143,0.02784672253819692,0.8442653697506135,0.07805204343541386,2.3002528980401693,0.2805224348247004,0.6325717423788115
123,6,23,3,False,soft,f,23,2022-11-10 08:22:05.219727,results/221110_08.22_data_subj6_block3_trial23.csv,E018,1,260.0,80.0,340.0,True,11.181,142,221110,8,22,2.715399999999441,4.030599999999628,44.087438158357614,34.182737976596854,0.5974124240013986,0.06676776979535894,0.379099956950099,0.06929987868581225,0.6301965214328714,0.059244400749877,0.7390222119499693
124,6,23,3,False,soft,f,23,2022-11-10 08:22:05.219727,results/221110_08.22_data_subj6_block3_trial23.csv,E080,2,106.0,610.0,716.0,False,11.181,143,221110,8,22,6.851,8.071200000000186,41.063099971035044,35.37469321261576,0.7715630329233439,0.1097581584719217,0.4447712321625556,0.08344100500892318,0.5728008916584088,0.03311240849151698,0.8040923822286471
125,6,24,3,False,soft,f,23,2022-11-10 08:22:05.219727,results/221110_08.22_data_subj6_block3_trial24.csv,E076,1,50.0,50.0,100.0,True,10.546,144,221110,8,22,2.9865999999996276,3.8272000000001865,39.52217881277248,49.584245004894626,0.761268025271204,0.04724702320833924,0.402653251742757,0.0525942058704324,0.527790824289461,0.05302655887057185,0.5556872969766303
126,6,24,3,False,soft,f,23,2022-11-10 08:22:05.219727,results/221110_08.22_data_subj6_block3_trial24.csv,E011,2,440.0,80.0,520.0,False,10.546,145,221110,8,22,6.9187999999998135,7.515399999999441,26.39000699369024,46.85575541138476,0.646169149992741,0.029275183739435398,0.5768458331625225,0.05354503842423068,0.8918205570665153,0.06075583327278123,1.246875819544675
127,6,1,4,False,soft,f,23,2022-11-10 08:22:05.219727,results/221110_08.22_data_subj6_block4_trial1.csv,E059,1,80.0,140.0,220.0,False,12.763,146,221110,8,22,4.169599999999628,5.235399999999442,38.42378731672698,37.48798468539086,0.3747022693560433,0.04080014806084572,0.4873167389867593,0.08500996333952585,1.3125556335849486,0.25716473098364484,1.6316285465597542
128,6,1,4,False,soft,f,23,2022-11-10 08:22:05.219727,results/221110_08.22_data_subj6_block4_trial1.csv,E038,2,110.0,80.0,190.0,True,12.763,147,221110,8,22,8.139799999999815,9.262399999999442,46.272021481424,43.685924485518875,0.2987847110909666,0.022466354100417064,0.723886445453754,0.06114844440333786,2.428988954299535,0.1990647454000374,1.689885032096214
129,6,2,4,False,soft,f,23,2022-11-10 08:22:05.219727,results/221110_08.22_data_subj6_block4_trial2.csv,E081,1,107.0,210.0,317.0,True,11.53,148,221110,8,22,3.014399999999441,3.917399999999441,37.55648466929823,44.70032346705982,0.3923113404297308,0.03782574330373825,0.3163740016151449,0.035787129545765135,0.8061864200772906,0.04806390890290637,1.1377583777133133
130,6,2,4,False,soft,f,23,2022-11-10 08:22:05.219727,results/221110_08.22_data_subj6_block4_trial2.csv,E048,2,170.0,170.0,340.0,False,11.53,149,221110,8,22,7.009,8.310599999999628,42.33661952034332,32.10735243693664,0.4704411023754905,0.04230757779413364,0.669550190636857,0.07129918261245702,1.4320586491389462,0.18298562188228248,0.6718788260168604
131,6,3,4,False,soft,f,23,2022-11-10 08:22:05.219727,results/221110_08.22_data_subj6_block4_trial3.csv,E025,1,320.0,140.0,460.0,True,11.962,150,221110,8,22,3.2665999999996274,4.731,40.13188428955248,30.31918089131732,0.3165195664896759,0.027868736510373516,0.2980224855298781,0.040094381820337095,0.9457933204386971,0.12902596594872442,0.6769161464222416
132,6,3,4,False,soft,f,23,2022-11-10 08:22:05.219727,results/221110_08.22_data_subj6_block4_trial3.csv,E032,2,440.0,260.0,700.0,False,11.962,151,221110,8,22,7.7003999999994415,8.449,34.68331828565049,48.93786885366577,0.29831577037215423,0.02434584797454069,0.46485462250367937,0.05049250644967184,1.5569830427304792,0.09354789045087991,1.0567321160750738
133,6,4,4,False,soft,f,23,2022-11-10 08:22:05.219727,results/221110_08.22_data_subj6_block4_trial4.csv,E036,1,380.0,260.0,640.0,False,15.129,152,221110,8,22,3.8847999999998137,5.381799999999814,49.12844554823461,34.40085152251401,0.2865026796400167,0.07398206304766164,0.42792810341144905,0.04767941823271132,1.5669326310672653,0.3171466383872346,0.8182341104279302
134,6,4,4,False,soft,f,23,2022-11-10 08:22:05.219727,results/221110_08.22_data_subj6_block4_trial4.csv,E037,2,380.0,260.0,640.0,True,15.129,153,221110,8,22,8.245599999999628,9.840200000000186,42.459493699863486,30.670172326268013,0.2693188175821806,0.035444713360831666,0.6842824514335798,0.07670242405922019,2.5810903005575905,0.41216744623707047,0.6737053111137794
135,6,5,4,False,soft,f,23,2022-11-10 08:22:05.219727,results/221110_08.22_data_subj6_block4_trial5.csv,E080,1,106.0,610.0,716.0,False,12.63,154,221110,8,22,3.543200000000186,4.600799999999814,36.91179165052647,37.12412384972503,0.33340699113820926,0.014154495104115036,0.3493224472869803,0.01515450727612543,1.0490322229159579,0.053166059581712694,1.2930929128606323
136,6,5,4,False,soft,f,23,2022-11-10 08:22:05.219727,results/221110_08.22_data_subj6_block4_trial5.csv,E042,2,380.0,320.0,700.0,True,12.63,155,221110,8,22,7.594599999999628,8.863799999999813,49.86892298230503,39.25422106562739,0.30775714473177623,0.04303955906077331,0.5781978516466673,0.10126263655114799,1.8824139552173214,0.20940179924126265,0.5832454917110462
137,6,6,4,False,soft,f,23,2022-11-10 08:22:05.219727,results/221110_08.22_data_subj6_block4_trial6.csv,E003,1,440.0,20.0,460.0,False,11.165,156,221110,8,22,3.101799999999814,4.681400000000372,43.31980203703777,29.491193142171912,0.365961668081208,0.029554661200698183,0.38156448120654235,0.06785353800250729,1.0403375299686894,0.1484209474763359,0.4546812842507053
138,6,6,4,False,soft,f,23,2022-11-10 08:22:05.219727,results/221110_08.22_data_subj6_block4_trial6.csv,E071,2,20.0,260.0,280.0,True,11.165,157,221110,8,22,7.149200000000186,8.342400000000373,40.96837870215229,35.82597148388557,0.4402844550560268,0.030178929312079914,0.48728809875210244,0.07609859346297848,1.1139455558276228,0.1977926002033431,1.4291940148277313
139,6,7,4,False,soft,f,23,2022-11-10 08:22:05.219727,results/221110_08.22_data_subj6_block4_trial7.csv,E036,1,380.0,260.0,640.0,False,13.363,158,221110,8,22,3.112,4.307799999999814,43.95716013665307,39.514140509937725,0.5034295939035294,0.04463251666888861,0.472023031377924,0.1029883131890531,0.9289029039673357,0.14807330267547753,0.5596769254944333
140,6,7,4,False,soft,f,23,2022-11-10 08:22:05.219727,results/221110_08.22_data_subj6_block4_trial7.csv,E056,2,110.0,170.0,280.0,True,13.363,159,221110,8,22,8.034,9.205599999999627,39.78918216823139,37.528663017932196,0.576640102622657,0.0317381271677638,0.5714780106750766,0.03707875242749324,0.9912789223741243,0.04131393626015933,1.3793412603015829
141,6,8,4,False,soft,f,23,2022-11-10 08:22:05.219727,results/221110_08.22_data_subj6_block4_trial8.csv,E078,1,80.0,110.0,190.0,True,15.011,160,221110,8,22,3.974399999999441,5.048200000000186,39.54984736040355,38.9494672931289,0.5086885996544386,0.07016436541431728,0.2256174342327834,0.03804175317808743,0.4415547270329268,0.019155695050291997,0.4203120527091206
142,6,8,4,False,soft,f,23,2022-11-10 08:22:05.219727,results/221110_08.22_data_subj6_block4_trial8.csv,E036,2,380.0,260.0,640.0,False,15.011,161,221110,8,22,8.27,9.506599999999628,45.92034937312058,37.56305343550164,0.5472811514744702,0.03847641165878696,0.5436662512793484,0.09166659947382072,0.9891864207498902,0.123893507109878,0.7115193973584714
143,6,9,4,False,soft,f,23,2022-11-10 08:22:05.219727,results/221110_08.22_data_subj6_block4_trial9.csv,E026,1,440.0,200.0,640.0,True,11.58,162,221110,8,22,4.104599999999627,4.958799999999814,33.21325606398334,42.11677976847179,0.4977644455321572,0.023640971221415816,0.4311152081115788,0.02457562094498196,0.8665906562465435,0.040242106238767464,0.7307814716797911
144,6,9,4,False,soft,f,23,2022-11-10 08:22:05.219727,results/221110_08.22_data_subj6_block4_trial9.csv,E003,2,440.0,20.0,460.0,False,11.58,163,221110,8,22,7.741200000000187,8.196799999999813,22.29524031850116,52.32063383405772,0.33677797572968765,0.03176078015115767,0.4966224264404757,0.03388826987156176,1.4803541681183452,0.08691191533493904,2.134135465185188
145,6,10,4,False,soft,f,23,2022-11-10 08:22:05.219727,results/221110_08.22_data_subj6_block4_trial10.csv,E067,1,80.0,320.0,400.0,True,11.497,164,221110,8,22,3.644200000000186,4.695,38.66020726313962,38.22949082445511,0.5260188656436959,0.09802342091692344,0.3499863875403068,0.09512831014896822,0.6557813981298694,0.060396170126252084,0.921240043954789
146,6,10,4,False,soft,f,23,2022-11-10 08:22:05.219727,results/221110_08.22_data_subj6_block4_trial10.csv,E010,2,500.0,80.0,580.0,False,11.497,165,221110,8,22,7.359399999999441,8.335599999999628,34.41849128488464,43.90104270363046,0.2638054308540797,0.01991907576066543,0.9092788613564304,0.12996654030575366,3.449115050014242,0.4326825104652731,0.6869266929604477
147,6,11,4,False,soft,f,23,2022-11-10 08:22:05.219727,results/221110_08.22_data_subj6_block4_trial11.csv,E054,1,200.0,260.0,460.0,False,11.179,166,221110,8,22,3.4455999999996276,4.454399999999441,42.80750644502764,45.13145457845813,0.5350548957857273,0.037670022238058445,0.44915163801501873,0.06545284173913984,0.8363448942414432,0.08290875755982785,1.1110519547873825
148,6,11,4,False,soft,f,23,2022-11-10 08:22:05.219727,results/221110_08.22_data_subj6_block4_trial11.csv,E033,2,80.0,50.0,130.0,True,11.179,167,221110,8,22,7.464599999999628,8.644200000000186,45.56961404018617,39.02031472362487,0.4625667474459945,0.04211431007077405,0.8166859482411728,0.05808948573641101,1.7725001785029202,0.1161305739709716,1.1460943468917282
149,6,12,4,False,soft,f,23,2022-11-10 08:22:05.219727,results/221110_08.22_data_subj6_block4_trial12.csv,E062,1,140.0,320.0,460.0,True,13.459,168,221110,8,22,4.503200000000186,5.487599999999627,32.52664204870075,36.586131497185825,0.39909182832700674,0.05534520289763597,0.5255953587490735,0.08243839094165412,1.3146036906211633,0.05707875086306474,0.9759092722922386
150,6,12,4,False,soft,f,23,2022-11-10 08:22:05.219727,results/221110_08.22_data_subj6_block4_trial12.csv,E037,2,200.0,140.0,340.0,False,13.459,169,221110,8,22,8.587200000000186,9.547200000000187,41.74642557614288,43.91406310168116,0.21069384609211278,0.022616330873464555,0.8468374588168553,0.0882090431863967,4.058467492283623,0.5564996771939743,1.8295391546889888
151,6,13,4,False,soft,f,23,2022-11-10 08:22:05.219727,results/221110_08.22_data_subj6_block4_trial13.csv,E074,1,110.0,50.0,160.0,False,11.115,170,221110,8,22,3.6847999999998136,4.518799999999814,42.15268846813475,52.72175757182406,0.24122514930893593,0.04934008300178134,0.7420673183654565,0.04212236794131273,3.2060444197012736,0.6628452183717906,2.1299203150168036
152,6,13,4,False,soft,f,23,2022-11-10 08:22:05.219727,results/221110_08.22_data_subj6_block4_trial13.csv,E058,2,50.0,80.0,130.0,True,11.115,171,221110,8,22,7.1153999999994415,7.901799999999814,42.56917905446435,57.07915950471942,0.33102453241845425,0.026007321092254777,0.6228946728284016,0.05039319160124342,1.8852032604761888,0.12379565748458639,1.886319831751745
153,6,14,4,False,soft,f,23,2022-11-10 08:22:05.219727,results/221110_08.22_data_subj6_block4_trial14.csv,E029,1,380.0,200.0,580.0,True,11.331,172,221110,8,22,3.372399999999441,4.202200000000186,36.13680781063567,48.14970022638829,0.2987301837556045,0.03137345383079875,1.0262613690553308,0.07566526538224747,3.4653803649285324,0.36951591148183927,1.4140518077982074
154,6,14,4,False,soft,f,23,2022-11-10 08:22:05.219727,results/221110_08.22_data_subj6_block4_trial14.csv,E028,2,500.0,260.0,760.0,False,11.331,173,221110,8,22,7.139,8.253599999999627,42.448402615184264,42.87012737090902,0.3264060627167697,0.01773676456447658,1.0490473442747967,0.12079615984581549,3.2216714500960375,0.39313547695877227,0.8869294640941922
155,6,15,4,False,soft,f,23,2022-11-10 08:22:05.219727,results/221110_08.22_data_subj6_block4_trial15.csv,E010,1,500.0,80.0,580.0,True,10.63,174,221110,8,22,3.603399999999441,4.315399999999441,37.19538828105788,54.61519123349472,0.2318290964241971,0.01913946609669537,0.7161224835748027,0.12589550131359076,3.1136244528185615,0.6099110291489422,1.0896800637664945
156,6,15,4,False,soft,f,23,2022-11-10 08:22:05.219727,results/221110_08.22_data_subj6_block4_trial15.csv,E011,2,500.0,80.0,580.0,False,10.63,175,221110,8,22,7.000200000000186,7.922200000000187,52.639456491272895,57.456504175163964,0.16388876726454676,0.019871133166771644,0.7081716463754908,0.2126194223677458,4.3529522576172575,1.3557004367732879,1.5182751243882546
157,6,16,4,False,soft,f,23,2022-11-10 08:22:05.219727,results/221110_08.22_data_subj6_block4_trial16.csv,E052,1,260.0,320.0,580.0,False,10.116,176,221110,8,22,3.2915999999996273,4.220399999999441,39.01075052350153,46.92793419699071,0.32656507130559886,0.035631353699260786,0.6171159212740019,0.06829085453805557,1.9149710159098097,0.30842479592414634,1.302511755040581
158,6,16,4,False,soft,f,23,2022-11-10 08:22:05.219727,results/221110_08.22_data_subj6_block4_trial16.csv,E023,2,200.0,80.0,280.0,True,10.116,177,221110,8,22,6.844200000000186,7.610200000000186,49.328873814047675,68.9988037044467,0.17598160664666498,0.024736050075460297,0.8470191161744886,0.0900057950421275,4.919443911926616,0.9411833840277185,2.2516603457895927
159,6,17,4,False,soft,f,23,2022-11-10 08:22:05.219727,results/221110_08.22_data_subj6_block4_trial17.csv,E066,1,50.0,170.0,220.0,True,10.898,178,221110,8,22,3.101799999999814,3.9695999999996276,42.23634024901409,50.27622727353431,0.3798319343580929,0.04915539193412988,0.31819893693292317,0.05737448411152925,0.8330334212525551,0.05222220457693961,1.4754215327750808
160,6,17,4,False,soft,f,23,2022-11-10 08:22:05.219727,results/221110_08.22_data_subj6_block4_trial17.csv,E006,2,260.0,20.0,280.0,False,10.898,179,221110,8,22,6.532399999999441,7.196799999999814,41.560148004119284,70.85866040372136,0.3556977588459661,0.038938655148586486,0.983169401743974,0.18740065353330093,2.7583106265337123,0.4188105512063387,1.6006159311938009
161,6,18,4,False,soft,f,23,2022-11-10 08:22:05.219727,results/221110_08.22_data_subj6_block4_trial18.csv,E074,1,110.0,50.0,160.0,True,9.331,180,221110,8,22,3.2677999999998137,4.119400000000373,43.87236247580917,53.059948891900056,0.4741667954954995,0.04919396341142077,0.322432001409195,0.05643035365452035,0.675310378936043,0.05568875031170695,0.6526336609971599
162,6,18,4,False,soft,f,23,2022-11-10 08:22:05.219727,results/221110_08.22_data_subj6_block4_trial18.csv,E022,2,380.0,140.0,520.0,False,9.331,181,221110,8,22,6.012400000000373,6.679400000000372,43.731719655184335,66.66068826115395,0.5171960961231062,0.05125447095010816,0.7061785276062473,0.09290592420766272,1.379743909949697,0.23553473779961998,2.0261750518095507
163,6,19,4,False,soft,f,23,2022-11-10 08:22:05.219727,results/221110_08.22_data_subj6_block4_trial19.csv,E071,1,20.0,260.0,280.0,False,12.596,182,221110,8,22,3.4455999999996276,4.1452000000001865,37.383607231775734,57.25578908727931,0.4988068222413415,0.03034203998651297,0.46042316413980083,0.03223180916725333,0.9266586704779023,0.08841784641152182,2.3380274181945024
164,6,19,4,False,soft,f,23,2022-11-10 08:22:05.219727,results/221110_08.22_data_subj6_block4_trial19.csv,E031,2,140.0,80.0,220.0,True,12.596,183,221110,8,22,7.041399999999441,7.903799999999814,41.662037383647615,48.72984775224585,0.45762601705102285,0.036076172451541606,0.6290436675493855,0.0643062716945424,1.378480387811459,0.13544585246440152,1.7386752488261918
165,6,20,4,False,soft,f,23,2022-11-10 08:22:05.219727,results/221110_08.22_data_subj6_block4_trial20.csv,E001,1,560.0,20.0,580.0,True,10.207,184,221110,8,22,2.541399999999441,3.4017999999998136,41.796490618381846,48.541900889567685,0.5459004292149067,0.04549398433227524,0.5133628966429626,0.04458604034384618,0.943470397244841,0.08062373052805376,0.5609649912396724
166,6,20,4,False,soft,f,23,2022-11-10 08:22:05.219727,results/221110_08.22_data_subj6_block4_trial20.csv,E063,2,80.0,200.0,280.0,False,10.207,185,221110,8,22,5.616799999999814,6.483200000000187,46.13168406172119,61.50254741487739,0.737329279449302,0.11328324725415881,0.4314403302774711,0.09141434432760276,0.580556173133621,0.05017554325860569,0.847345113141955
167,6,21,4,False,soft,f,23,2022-11-10 08:22:05.219727,results/221110_08.22_data_subj6_block4_trial21.csv,E075,1,20.0,20.0,40.0,True,10.797,186,221110,8,22,3.217,3.942399999999441,36.59002704812419,52.87502942187561,0.6534169517061695,0.035531781407499415,0.4165433691359814,0.04056150902993473,0.6364752295241684,0.03956440527157531,0.7931492304925852
168,6,21,4,False,soft,f,23,2022-11-10 08:22:05.219727,results/221110_08.22_data_subj6_block4_trial21.csv,E072,2,20.0,320.0,340.0,False,10.797,187,221110,8,22,7.000200000000186,7.583200000000186,42.18326544879818,73.17940310763888,0.5117658134096414,0.05093753916370757,0.3963667701940893,0.03279913669893697,0.7818789483882888,0.09832344231784457,1.1761977688681036
169,6,22,4,False,soft,f,23,2022-11-10 08:22:05.219727,results/221110_08.22_data_subj6_block4_trial22.csv,E026,1,440.0,200.0,640.0,True,10.343,188,221110,8,22,3.427200000000186,4.335599999999627,48.91126344646389,54.48085165465353,0.4823145698877843,0.08135734528291266,0.5371332181614077,0.14726916938913678,1.0972314183802172,0.13730140979812358,1.0227652317952616
170,6,22,4,False,soft,f,23,2022-11-10 08:22:05.219727,results/221110_08.22_data_subj6_block4_trial22.csv,E015,2,560.0,140.0,700.0,False,10.343,189,221110,8,22,6.7695999999996275,7.529,42.498109090317534,58.70307086067256,0.3201895055013159,0.0311855573564437,0.6350543218914694,0.08698388822535977,1.9808334304814514,0.16141186172494434,1.144051504912974
171,6,23,4,False,soft,f,23,2022-11-10 08:22:05.219727,results/221110_08.22_data_subj6_block4_trial23.csv,E018,1,260.0,80.0,340.0,True,11.964,190,221110,8,22,3.1933999999994414,4.307799999999814,43.12309907509584,38.58626389992542,0.33308405395405555,0.04043518955669682,0.6279406110360992,0.06617470692926893,1.8977527244608596,0.19405127167168204,1.0913609321273314
172,6,23,4,False,soft,f,23,2022-11-10 08:22:05.219727,results/221110_08.22_data_subj6_block4_trial23.csv,E080,2,106.0,610.0,716.0,False,11.964,191,221110,8,22,6.813599999999627,7.733,42.62461856257164,48.496541339093945,0.5187644374546636,0.097683247860509,0.5406400648286969,0.1378755831272014,1.031158460218552,0.09739048665495903,1.431859131570169
173,6,24,4,False,soft,f,23,2022-11-10 08:22:05.219727,results/221110_08.22_data_subj6_block4_trial24.csv,E076,1,50.0,50.0,100.0,True,12.746,192,221110,8,22,2.811,3.714,45.50002443706938,51.43206060353977,0.526745431857658,0.048633095939060976,0.6898927488824217,0.1006744283745405,1.3046199745999039,0.09932313014697969,1.3295257184682314
174,6,24,4,False,soft,f,23,2022-11-10 08:22:05.219727,results/221110_08.22_data_subj6_block4_trial24.csv,E011,2,440.0,80.0,520.0,False,12.746,193,221110,8,22,6.594,7.375,37.50085306897907,54.25205064155226,0.2579671091688373,0.027880760242239674,1.2717923188253075,0.18973098588442364,4.938371547941245,0.6318899965666885,0.8553190731984861
175,7,0,1,False,soft,m,21,2022-11-10 10:41:45.411461,results/221110_10.41_data_subj7_block1_trial0.csv,E057,1,200.0,320.0,520.0,False,9.013,194,221110,10,41,2.492599999999977,3.774,28.06682111338919,24.21773566680747,0.12063957935674022,0.017485547562412655,0.4637054276536481,0.04272347431398468,3.909333196462044,0.5821471954006125,1.4145077773313126
176,7,0,1,False,soft,m,21,2022-11-10 10:41:45.411461,results/221110_10.41_data_subj7_block1_trial0.csv,E078,2,80.0,110.0,190.0,True,9.013,195,221110,10,41,6.153599999999977,7.0812000000000115,40.506198532648455,39.88411179143543,0.19195986281201785,0.021700554923537226,0.4770751618659943,0.03308444750994969,2.5158864147501787,0.3322073710950519,2.7834930422206674
177,7,1,1,False,soft,m,21,2022-11-10 10:41:45.411461,results/221110_10.41_data_subj7_block1_trial1.csv,E036,1,380.0,260.0,640.0,False,9.331,196,221110,10,41,2.6452000000000115,3.713,32.16461518956379,35.01988320684106,0.10389357573394936,0.027782716643416142,0.5157820356600946,0.06382446155157027,5.280822836116751,1.3473860304056648,9.30033786320438
178,7,1,1,False,soft,m,21,2022-11-10 10:41:45.411461,results/221110_10.41_data_subj7_block1_trial1.csv,E059,2,80.0,140.0,220.0,True,9.331,197,221110,10,41,6.385599999999977,7.563200000000012,52.543100511953114,41.48018082857881,0.16592955468634243,0.016627097547184957,0.47430525903868626,0.037080534161155775,2.872244542595518,0.2130605765710997,2.310873240662936
179,7,2,1,False,soft,m,21,2022-11-10 10:41:45.411461,results/221110_10.41_data_subj7_block1_trial2.csv,E047,1,140.0,140.0,280.0,False,8.164,198,221110,10,41,2.2645999999999766,3.2354000000000234,40.1477829144184,41.18490971250748,0.10296603762230322,0.019996306835926205,0.4406318953613299,0.0294674742127528,4.417370702258843,0.7751942060182032,2.295154982439677
180,7,2,1,False,soft,m,21,2022-11-10 10:41:45.411461,results/221110_10.41_data_subj7_block1_trial2.csv,E031,2,140.0,80.0,220.0,True,8.164,199,221110,10,41,5.632599999999977,6.630599999999976,47.097358870904976,49.766711063957565,0.09136106443309289,0.01787111945478044,0.5671402650284016,0.0349914343833853,6.441924175525573,1.3097923956492794,9.801185127386095
181,7,3,1,False,soft,m,21,2022-11-10 10:41:45.411461,results/221110_10.41_data_subj7_block1_trial3.csv,E067,1,80.0,320.0,400.0,False,9.583,200,221110,10,41,2.796,3.4414000000000233,24.693389308469577,46.38895119617909,0.08053439006088486,0.013006603530646973,0.4296912218478104,0.03838758852066792,5.475989766140282,1.0196854020256563,5.601443201788679
182,7,3,1,False,soft,m,21,2022-11-10 10:41:45.411461,results/221110_10.41_data_subj7_block1_trial3.csv,E048,2,170.0,170.0,340.0,True,9.583,201,221110,10,41,5.773599999999977,6.473400000000023,31.024342501879126,55.12354621531448,0.10311573077247048,0.016307254288505792,0.48342435570846537,0.04239077997939865,4.7805437165282845,0.6962334138432105,5.739346268522012
183,7,4,1,False,soft,m,21,2022-11-10 10:41:45.411461,results/221110_10.41_data_subj7_block1_trial4.csv,E053,1,110.0,140.0,250.0,False,8.562,202,221110,10,41,3.3655999999999766,4.3145999999999765,39.1751727034369,41.64644810012678,0.12666609777469787,0.01447792241897725,0.4479628373514269,0.031347515804529505,3.5715619319783625,0.3811306347419505,4.620088639412866
184,7,4,1,False,soft,m,21,2022-11-10 10:41:45.411461,results/221110_10.41_data_subj7_block1_trial4.csv,E033,2,80.0,50.0,130.0,True,8.562,203,221110,10,41,6.326800000000047,7.2001999999999535,61.37647218390212,65.59597523216375,0.07395126057468877,0.0140560327860582,0.5593595159788982,0.0424136477745765,7.86164949020448,1.7179984578109702,3.6764658412095508
185,7,5,1,False,soft,m,21,2022-11-10 10:41:45.411461,results/221110_10.41_data_subj7_block1_trial5.csv,E037,1,200.0,140.0,340.0,False,8.581,204,221110,10,41,2.4055999999999766,3.219,41.975046119604755,57.936020228254115,0.06782112368300013,0.011268014317783315,0.4683519670218737,0.030879673186881326,7.095245538835773,1.2588016785557579,6.821347767440541
186,7,5,1,False,soft,m,21,2022-11-10 10:41:45.411461,results/221110_10.41_data_subj7_block1_trial5.csv,E027,2,170.0,80.0,250.0,True,8.581,205,221110,10,41,5.583800000000046,6.2998000000000465,44.34977889074976,62.17443650524072,0.08261843461449703,0.013064092050531316,0.5716161422042916,0.05752142936094812,7.035914181586482,0.9465923838951874,11.079432702516872
187,7,6,1,False,soft,m,21,2022-11-10 10:41:45.411461,results/221110_10.41_data_subj7_block1_trial6.csv,E052,2,260.0,320.0,580.0,False,7.465,207,221110,10,41,5.536,6.162400000000023,33.25951842950665,66.16673474692888,0.10368431967289343,0.015500253983801593,0.4582183491666443,0.05367454886324889,4.510595119842816,0.7999850952885014,4.529483111315146
188,7,7,1,False,soft,m,21,2022-11-10 10:41:45.411461,results/221110_10.41_data_subj7_block1_trial7.csv,E077,1,110.0,110.0,220.0,True,9.831,208,221110,10,41,3.3711999999999533,4.335400000000023,45.565734840433365,43.28869752302534,0.08910627441031053,0.01512654718222558,0.4027554913639313,0.029907968003978724,4.63673667173052,0.7736114276262033,7.719741162851052
189,7,7,1,False,soft,m,21,2022-11-10 10:41:45.411461,results/221110_10.41_data_subj7_block1_trial7.csv,E041,2,140.0,110.0,250.0,False,9.831,209,221110,10,41,6.647800000000046,7.727800000000046,38.25072932233584,39.28421494542808,0.09018881116450168,0.01717400208328438,0.5080085794168652,0.024557996910859997,5.824903719488276,1.0830783719158115,5.187787160458903
190,7,8,1,False,soft,m,21,2022-11-10 10:41:45.411461,results/221110_10.41_data_subj7_block1_trial8.csv,E010,1,500.0,80.0,580.0,False,8.764,210,221110,10,41,2.915400000000023,3.9511999999999534,54.88380805987779,49.43350111956522,0.051911061565710334,0.012130347081781921,0.4892064342696575,0.05508916776695815,9.834899701222323,2.0740804611938426,2.2787618348091403
191,7,8,1,False,soft,m,21,2022-11-10 10:41:45.411461,results/221110_10.41_data_subj7_block1_trial8.csv,E023,2,200.0,80.0,280.0,True,8.764,211,221110,10,41,6.267199999999954,7.243400000000023,51.18719985627128,54.2167645960414,0.06950325259176507,0.012378784737566694,0.521630695188677,0.06078573803286345,7.6609851468479695,1.1942793236467437,4.311410882066463
192,7,9,1,False,soft,m,21,2022-11-10 10:41:45.411461,results/221110_10.41_data_subj7_block1_trial9.csv,E024,1,500.0,200.0,700.0,False,8.281,212,221110,10,41,2.3945999999999765,3.3925999999999767,57.672524858924945,42.3792880592754,0.07351180902972924,0.013825171751212298,0.5448268597666233,0.038887253928025285,7.7090377686748415,1.7308336601056626,3.25007769731173
193,7,10,1,False,soft,m,21,2022-11-10 10:41:45.411461,results/221110_10.41_data_subj7_block1_trial10.csv,E066,1,50.0,170.0,220.0,True,9.079,214,221110,10,41,2.6821999999999533,3.6745999999999768,36.876258583169445,44.182030014251545,0.10756561530300934,0.015114788138742266,0.2721753650036724,0.03937032039017139,2.549375662089468,0.32610660536989916,3.4050519996141264
194,7,10,1,False,soft,m,21,2022-11-10 10:41:45.411461,results/221110_10.41_data_subj7_block1_trial10.csv,E044,2,170.0,140.0,310.0,False,9.079,215,221110,10,41,6.175,7.010199999999953,54.10993183141211,48.95056522444407,0.06863413794509474,0.013768430219546192,0.31368484625105797,0.02877640135465565,4.748014200204381,1.019280005939438,5.20744549732257
195,7,11,1,False,soft,m,21,2022-11-10 10:41:45.411461,results/221110_10.41_data_subj7_block1_trial11.csv,E060,1,140.0,260.0,400.0,True,9.331,216,221110,10,41,2.4705999999999766,3.3764000000000234,34.29130442353754,40.216007681373156,0.10455904795428987,0.01106503418961716,0.38273012685130625,0.05237159558857761,3.6930500879874026,0.5810221069747734,5.353588933319973
196,7,11,1,False,soft,m,21,2022-11-10 10:41:45.411461,results/221110_10.41_data_subj7_block1_trial11.csv,E062,2,140.0,320.0,460.0,False,9.331,217,221110,10,41,6.126199999999954,6.966800000000046,41.83172913211825,40.89093636018918,0.12179673648716252,0.016366567698390937,0.3841248818119448,0.05097657754243349,3.1874261472872276,0.46214839586584305,13.37079839165496
197,7,12,1,False,soft,m,21,2022-11-10 10:41:45.411461,results/221110_10.41_data_subj7_block1_trial12.csv,E045,1,260.0,260.0,520.0,False,8.645,218,221110,10,41,2.714599999999977,3.555400000000023,24.14564780138564,41.90420408574528,0.06666509743999924,0.014251945103751218,0.27308332977166394,0.04102694465821532,4.25417533130284,0.9686997108636878,5.789064404982461
198,7,12,1,False,soft,m,21,2022-11-10 10:41:45.411461,results/221110_10.41_data_subj7_block1_trial12.csv,E037,2,200.0,140.0,340.0,True,8.645,219,221110,10,41,6.473400000000023,7.0048000000000465,56.3054543591855,57.748884401368805,0.06743820471573016,0.016939043769212642,0.3620930445660841,0.03667021297008883,5.698574956166926,1.5312617019971144,16.208790936525215
199,7,13,1,False,soft,m,21,2022-11-10 10:41:45.411461,results/221110_10.41_data_subj7_block1_trial13.csv,E037,1,200.0,140.0,340.0,False,10.197,220,221110,10,41,3.7525999999999766,4.335599999999976,27.857022538276034,57.52356634970079,0.09676836520623859,0.015192564131927662,0.4431324956231655,0.0202471220579574,4.681661349644617,0.6894251017557566,4.204208635959099
200,7,13,1,False,soft,m,21,2022-11-10 10:41:45.411461,results/221110_10.41_data_subj7_block1_trial13.csv,E020,2,140.0,50.0,190.0,True,10.197,221,221110,10,41,7.400199999999954,7.827199999999953,65.16063951261219,72.13932261086876,0.06612995048118182,0.010691233943903238,0.4242940936012051,0.08382726630769465,6.596653592123021,1.778499778671835,40.538205104429146
201,7,14,1,False,soft,m,21,2022-11-10 10:41:45.411461,results/221110_10.41_data_subj7_block1_trial14.csv,E012,1,380.0,80.0,460.0,False,8.584,222,221110,10,41,2.4055999999999766,2.937,19.356076392483473,55.09606185955308,0.10156794291261764,0.02076682061745516,0.49738309521154306,0.07559415961421202,5.0396640433818485,1.0717030820732274,29.950351503697096
202,7,14,1,False,soft,m,21,2022-11-10 10:41:45.411461,results/221110_10.41_data_subj7_block1_trial14.csv,E049,2,80.0,80.0,160.0,True,8.584,223,221110,10,41,5.708599999999977,6.728199999999953,61.954466078851176,53.086683650684655,0.06196761217256136,0.013459021538319408,0.3388613952297974,0.03412087363701314,5.7072457330482935,1.290028080735863,2.9356738670484717
203,7,15,1,False,soft,m,21,2022-11-10 10:41:45.411461,results/221110_10.41_data_subj7_block1_trial15.csv,E002,1,500.0,20.0,520.0,True,8.364,224,221110,10,41,2.302400000000023,2.6821999999999533,23.195073746151223,75.18864185343203,0.054332935712771216,0.016190043075848898,0.3025901621758365,0.07875272560696595,6.185782935613696,3.692675592440065,28.214289843693287
204,7,17,1,False,soft,m,21,2022-11-10 10:41:45.411461,results/221110_10.41_data_subj7_block1_trial17.csv,E061,1,80.0,170.0,250.0,True,9.031,228,221110,10,41,2.237400000000023,3.0455999999999768,32.00293582893694,45.88561843843922,0.08372757637785862,0.014676603279874769,0.2766166648284721,0.030433985610566733,3.3881927910959493,0.6151844632758735,4.845479856019826
205,7,17,1,False,soft,m,21,2022-11-10 10:41:45.411461,results/221110_10.41_data_subj7_block1_trial17.csv,E051,2,140.0,170.0,310.0,False,9.031,229,221110,10,41,5.985199999999954,6.565599999999977,37.63893559190425,54.38496665844111,0.05812854356085411,0.015620555020850337,0.2598195076363477,0.02457160574298384,4.846073100403717,1.6354552946582743,6.465204925768888
206,7,19,1,False,soft,m,21,2022-11-10 10:41:45.411461,results/221110_10.41_data_subj7_block1_trial19.csv,E051,1,140.0,170.0,310.0,False,8.678,230,221110,10,41,2.2997000000000116,3.1405000000000003,29.027516807762154,41.951513311799914,0.10154736967629441,0.026092448050492836,0.31314798208327943,0.05989648212601399,3.1747816216288394,0.5582466862785641,2.6596169189036103
207,7,19,1,False,soft,m,21,2022-11-10 10:41:45.411461,results/221110_10.41_data_subj7_block1_trial19.csv,E059,2,80.0,140.0,220.0,True,8.678,231,221110,10,41,5.9825,6.649599999999976,29.331968795323004,52.50972961693275,0.06757373116298157,0.01565256008191454,0.18135270163596445,0.0305448763987973,2.7749609309663006,0.5580388121975599,2.3752722218670392
208,7,21,1,False,soft,m,21,2022-11-10 10:41:45.411461,results/221110_10.41_data_subj7_block1_trial21.csv,E048,1,170.0,170.0,340.0,False,8.731,234,221110,10,41,2.519399999999907,3.327600000000093,38.71421406440078,50.635113773306756,0.062433459117360125,0.015241835126592225,0.2744748213090232,0.02978039540858307,4.6449296485554585,1.2017024079017669,3.9674259708051904
209,7,23,1,False,soft,m,21,2022-11-10 10:41:45.411461,results/221110_10.41_data_subj7_block1_trial23.csv,E045,1,260.0,260.0,520.0,False,9.584,238,221110,10,41,2.578,3.42,29.16573537181563,48.602347278264446,0.08704251040908738,0.016678901350501252,0.3335362786402248,0.048481614270212164,3.916869928091097,0.6558851699673579,7.272174952390446
210,7,23,1,False,soft,m,21,2022-11-10 10:41:45.411461,results/221110_10.41_data_subj7_block1_trial23.csv,E002,2,500.0,20.0,520.0,True,9.584,239,221110,10,41,6.214600000000093,6.928600000000094,19.18090612197577,54.676875760362975,0.0658858984692307,0.015043175145923527,0.29157286946914696,0.05035364278001509,4.595034800719531,1.1032599441609194,27.77855707766228
211,7,24,1,False,soft,m,21,2022-11-10 10:41:45.411461,results/221110_10.41_data_subj7_block1_trial24.csv,E064,1,50.0,140.0,190.0,True,8.864,240,221110,10,41,2.058399999999907,3.018399999999907,35.65693479003518,37.073531727291105,0.07680088866510168,0.011004451320503119,0.19839655798279585,0.017562046438742623,2.6261041493492505,0.37218624808971346,1.1251052644795028
212,7,0,2,False,soft,m,21,2022-11-10 10:41:45.411461,results/221110_10.41_data_subj7_block2_trial0.csv,E022,1,380.0,140.0,520.0,True,9.446,242,221110,10,41,3.1821999999999533,3.7008000000000467,13.580762387555048,60.88811749893891,0.061984682810774155,0.01630316831906851,0.3597157816008012,0.05413735469534675,6.336444694289811,2.9660292395847963,17.182129416476258
213,7,5,2,False,soft,m,21,2022-11-10 10:41:45.411461,results/221110_10.41_data_subj7_block2_trial5.csv,E064,1,50.0,140.0,190.0,True,7.833,252,221110,10,41,1.6871999999999534,2.688600000000093,54.195394431826074,55.242053141896804,0.07727706951899282,0.016615254721213907,0.2082441550252504,0.024754075838456277,2.797525700329908,0.5810058520893822,1.3543910755333508
214,7,6,2,False,soft,m,21,2022-11-10 10:41:45.411461,results/221110_10.41_data_subj7_block2_trial6.csv,E068,1,20.0,80.0,100.0,True,9.282,254,221110,10,41,2.5901999999999537,3.3468000000000466,40.06008377848897,54.28077984234636,0.07382816798461546,0.011649640893574589,0.17024597573859027,0.013714319408155465,2.3482000036072685,0.31773732230046603,1.019842943310671
215,7,6,2,False,soft,m,21,2022-11-10 10:41:45.411461,results/221110_10.41_data_subj7_block2_trial6.csv,E066,2,50.0,170.0,220.0,False,9.282,255,221110,10,41,5.824199999999953,6.776,42.433641607979176,44.75284174590283,0.10341434672014718,0.020032701251726594,0.2506741682613496,0.055825587038767235,2.442342541214262,0.3723196580930005,1.5395848943861306
216,7,7,2,False,soft,m,21,2022-11-10 10:41:45.411461,results/221110_10.41_data_subj7_block2_trial7.csv,E054,1,200.0,260.0,460.0,False,8.794,256,221110,10,41,1.8956000000000932,2.595399999999907,51.53761789241891,47.00017087926765,0.056598016843698945,0.014796854932381307,0.2641109364920803,0.03499786965599273,5.022769684503238,1.6909796041902823,6.395731399777063
217,7,8,2,False,soft,m,21,2022-11-10 10:41:45.411461,results/221110_10.41_data_subj7_block2_trial8.csv,E079,1,50.0,110.0,160.0,True,8.412,258,221110,10,41,2.2048000000000467,3.0021999999999536,36.48900109971354,50.9361916573509,0.05723085639057835,0.014384865487906816,0.14419433015474795,0.011987506688355803,2.7092425095013413,0.8452350754476582,2.040457748813074
218,7,9,2,False,soft,m,21,2022-11-10 10:41:45.411461,results/221110_10.41_data_subj7_block2_trial9.csv,E053,1,110.0,140.0,250.0,True,9.197,260,221110,10,41,1.7491999999999535,2.4651999999999537,32.421727390848325,55.527836474312224,0.0705786737808252,0.02043602455832046,0.26810005127061626,0.04425462015615291,4.038228737364625,1.061941422088247,3.357011038252985
219,7,9,2,False,soft,m,21,2022-11-10 10:41:45.411461,results/221110_10.41_data_subj7_block2_trial9.csv,E050,2,320.0,320.0,640.0,False,9.197,261,221110,10,41,5.334399999999907,5.600199999999953,13.527962980756403,107.50575840168707,0.050877799317053385,0.01612596801294713,0.2830240549030572,0.029421391401259954,6.1963857503303865,2.392596166478314,1.838138159931874
220,7,10,2,False,soft,m,21,2022-11-10 10:41:45.411461,results/221110_10.41_data_subj7_block2_trial10.csv,E066,1,50.0,170.0,220.0,True,8.731,262,221110,10,41,2.091,3.1268000000000464,33.38679696966868,36.22573576099828,0.08241391778294316,0.014966294785997711,0.18835011950246,0.03501284450211928,2.3459514224673126,0.5415524788062455,1.5764224698374807
221,7,11,2,False,soft,m,21,2022-11-10 10:41:45.411461,results/221110_10.41_data_subj7_block2_trial11.csv,E070,1,20.0,200.0,220.0,False,8.23,264,221110,10,41,2.096399999999907,3.0076000000000933,34.88411604428654,45.7817735512259,0.08759406667075158,0.019405809040960204,0.21098317436050507,0.03119930153935426,2.475374829695394,0.4253455885141938,1.8666314554166483
222,7,11,2,False,soft,m,21,2022-11-10 10:41:45.411461,results/221110_10.41_data_subj7_block2_trial11.csv,E076,2,50.0,50.0,100.0,True,8.23,265,221110,10,41,5.442800000000046,6.251,38.542785137860164,61.452712143376914,0.058126073400626324,0.01391825248055653,0.2852786195450043,0.026449990359670873,5.271423176615328,1.7151353608961522,1.5803843927265693
223,7,12,2,False,soft,m,21,2022-11-10 10:41:45.411461,results/221110_10.41_data_subj7_block2_trial12.csv,E082,1,22.0,113.0,135.0,True,8.531,266,221110,10,41,1.5701999999999534,2.519399999999907,43.24035114810102,47.59467340750648,0.08470040967377115,0.012663557844841467,0.15299826241903772,0.01697714491958911,1.8299281329378287,0.22932232431136834,0.9540100251622761
224,7,13,2,False,soft,m,21,2022-11-10 10:41:45.411461,results/221110_10.41_data_subj7_block2_trial13.csv,E071,1,20.0,260.0,280.0,True,9.233,268,221110,10,41,2.425600000000093,3.3101999999999534,55.69121766336207,40.88363676343788,0.05737637014463954,0.01546273940560298,0.1679016407966448,0.03561831622065535,3.097920696875411,0.955660936003522,1.6946359166449365
225,7,13,2,False,soft,m,21,2022-11-10 10:41:45.411461,results/221110_10.41_data_subj7_block2_trial13.csv,E039,2,440.0,320.0,760.0,False,9.233,269,221110,10,41,6.007199999999953,6.635600000000093,37.02358766512329,40.63263164934052,0.06019354076514979,0.019219805623833533,0.27992504192775264,0.04008559465598584,5.047587868610838,1.50993013671517,0.8862807364912997
226,7,15,2,False,soft,m,21,2022-11-10 10:41:45.411461,results/221110_10.41_data_subj7_block2_trial15.csv,E063,1,80.0,200.0,280.0,True,8.699,272,221110,10,41,1.554,2.6008000000000466,63.25536141620875,44.46177156231616,0.06844835691815565,0.01846689027619431,0.1646241878551423,0.026613187494738077,2.5389375499920908,0.6518032218457241,1.9447800740736347
227,7,16,2,False,soft,m,21,2022-11-10 10:41:45.411461,results/221110_10.41_data_subj7_block2_trial16.csv,E039,1,440.0,320.0,760.0,False,7.981,274,221110,10,41,1.991,2.726600000000093,30.479243484502177,46.92046589353477,0.07422986721065071,0.022066592573448944,0.32660707734415306,0.05229468711175896,4.701372723696439,1.3344687541537688,1.587415104821776
228,7,16,2,False,soft,m,21,2022-11-10 10:41:45.411461,results/221110_10.41_data_subj7_block2_trial16.csv,E071,2,20.0,260.0,280.0,True,7.981,275,221110,10,41,5.2846000000000934,6.010600000000093,40.017777313814804,50.335072198751206,0.08129357230380031,0.014669991934857868,0.22380393979222696,0.037652069913723336,2.823471172341416,0.6204113863659282,2.688766773772392
229,7,17,2,False,soft,m,21,2022-11-10 10:41:45.411461,results/221110_10.41_data_subj7_block2_trial17.csv,E061,1,80.0,170.0,250.0,True,7.914,276,221110,10,41,1.771,2.2101999999999533,41.45080103550748,94.55516230012641,0.08774013920800418,0.013592292562973595,7.384925316147292e-06,0.00023185913753045927,8.3409120941891e-05,0.0027342901922799145,2.9080276580882
230,7,18,2,False,soft,m,21,2022-11-10 10:41:45.411461,results/221110_10.41_data_subj7_block2_trial18.csv,E077,1,110.0,110.0,220.0,False,9.046,278,221110,10,41,1.7111999999999534,2.6821999999999533,54.690701867073095,51.3808468648331,0.07579197037288468,0.016104699274453786,0.2887570437566699,0.024653579313433534,3.9675973852134327,0.8097855645486054,2.140368314157731
231,7,18,2,False,soft,m,21,2022-11-10 10:41:45.411461,results/221110_10.41_data_subj7_block2_trial18.csv,E059,2,80.0,140.0,220.0,True,9.046,279,221110,10,41,5.383199999999953,6.082800000000047,31.456654372961736,46.49191067081901,0.06523345825960873,0.018309527716134495,0.22210680993027712,0.0355276547987368,3.629269976187113,1.013798688427381,2.0467654783283367
232,7,20,2,False,soft,m,21,2022-11-10 10:41:45.411461,results/221110_10.41_data_subj7_block2_trial20.csv,E082,2,22.0,113.0,135.0,True,8.913,283,221110,10,41,5.524199999999953,6.034,32.037565519176724,62.37561773104408,0.07642365470228077,0.017249446542820034,0.14665822831607353,0.020153125237095604,1.9867551560950902,0.39169144290664,1.044790344509145
233,7,21,2,False,soft,m,21,2022-11-10 10:41:45.411461,results/221110_10.41_data_subj7_block2_trial21.csv,E033,1,80.0,50.0,130.0,True,10.096,284,221110,10,41,2.9808000000000465,3.5116000000000933,37.18262938297045,68.38635641867636,0.09668505445081478,0.017831174145323016,0.35557108016533073,0.028748231153486067,3.8066648351445798,0.7927720531677428,4.647771130253893
234,7,21,2,False,soft,m,21,2022-11-10 10:41:45.411461,results/221110_10.41_data_subj7_block2_trial21.csv,E038,2,110.0,80.0,190.0,False,10.096,285,221110,10,41,5.6593999999999065,6.172,48.54442919268554,66.63285778780312,0.053132194172217415,0.0192122879933344,0.2524390826678817,0.03501587584814975,5.197166079725617,1.4746531805461696,3.1368941517005196
235,7,22,2,False,soft,m,21,2022-11-10 10:41:45.411461,results/221110_10.41_data_subj7_block2_trial22.csv,E074,1,110.0,50.0,160.0,True,10.317,286,221110,10,41,4.152600000000093,5.095,48.95592226925704,54.17227745249971,0.07099731143703637,0.030666686147291348,0.3189154935808519,0.030922262175269215,5.448118306121865,2.568018380003971,2.3591713383189714
236,7,22,2,False,soft,m,21,2022-11-10 10:41:45.411461,results/221110_10.41_data_subj7_block2_trial22.csv,E016,2,500.0,140.0,640.0,False,10.317,287,221110,10,41,7.434,7.935600000000093,27.49283417911919,53.3937861393092,0.05200605017636759,0.02358262545598123,0.31609321782621735,0.07041171000313882,7.555976881058293,6.325217451691675,15.982060827452697
237,7,23,2,False,soft,m,21,2022-11-10 10:41:45.411461,results/221110_10.41_data_subj7_block2_trial23.csv,E002,1,500.0,20.0,520.0,True,8.497,288,221110,10,41,2.693,3.219,28.08412849160576,55.213983810322105,0.06987704608440823,0.015910938304111454,0.2964847961922414,0.07473178011207258,4.385593266181323,1.1801135812378856,24.607389867171985
238,7,24,2,False,soft,m,21,2022-11-10 10:41:45.411461,results/221110_10.41_data_subj7_block2_trial24.csv,E056,1,110.0,170.0,280.0,False,9.348,290,221110,10,41,3.115,4.036399999999907,45.11378033521339,58.63443554728733,0.05872837893536049,0.01702167152729321,0.1978633780615178,0.039057769788741856,3.5786163770595536,1.0369424535983855,2.0213853660096035
239,7,24,2,False,soft,m,21,2022-11-10 10:41:45.411461,results/221110_10.41_data_subj7_block2_trial24.csv,E008,2,140.0,20.0,160.0,True,9.348,291,221110,10,41,5.970600000000093,6.202399999999907,24.10243700720131,121.89909789568884,0.05547621418028002,0.014494064343292012,0.3145902032650333,0.040227410891837276,5.994013070003239,1.4638091532731337,12.942642834334306
240,7,0,3,False,soft,m,21,2022-11-10 10:41:45.411461,results/221110_10.41_data_subj7_block3_trial0.csv,E037,1,200.0,140.0,340.0,False,9.912,292,221110,10,41,2.973,3.4002000000001864,22.45954104959781,32.55438543240499,0.072819917892972,0.014386320468625327,0.2456237892351863,0.014266767173057346,3.5107335178764085,0.757747135748855,1.067941131869558
241,7,0,3,False,soft,m,21,2022-11-10 10:41:45.411461,results/221110_10.41_data_subj7_block3_trial0.csv,E063,2,80.0,200.0,280.0,True,9.912,293,221110,10,41,5.8067999999998134,6.674600000000093,41.5477480713991,55.34292097737309,0.053863732189507275,0.017023020028522743,0.12581122831497524,0.030374376419424934,2.522802764017655,0.9673260792412435,1.791311952919542
242,7,3,3,False,soft,m,21,2022-11-10 10:41:45.411461,results/221110_10.41_data_subj7_block3_trial3.csv,E033,1,80.0,50.0,130.0,True,13.346,298,221110,10,41,3.502399999999907,4.267200000000186,48.89105959530979,52.75053899792096,0.06530750768903845,0.016929300365879613,0.23947809395154285,0.021205344348677387,3.9922648957593987,1.5004911048903251,1.4051097148303013
243,7,4,3,False,soft,m,21,2022-11-10 10:41:45.411461,results/221110_10.41_data_subj7_block3_trial4.csv,E030,1,260.0,140.0,400.0,True,9.947,300,221110,10,41,2.715399999999907,3.420399999999907,23.600063082115685,38.11406779910386,0.05143525342128159,0.014062856073057567,0.27997531605268566,0.04893183636106557,6.013711046915463,2.84738961706525,7.337883754960775
244,7,8,3,False,soft,m,21,2022-11-10 10:41:45.411461,results/221110_10.41_data_subj7_block3_trial8.csv,E016,1,500.0,140.0,640.0,False,9.829,308,221110,10,41,2.484799999999814,3.481399999999907,45.34895043125623,37.93081141268193,0.06559820018541149,0.012837552012812718,0.2644082968678097,0.04752516466263275,4.137661847890752,0.8767783362905701,2.13761128566738
245,7,8,3,False,soft,m,21,2022-11-10 10:41:45.411461,results/221110_10.41_data_subj7_block3_trial8.csv,E079,2,50.0,110.0,160.0,True,9.829,309,221110,10,41,6.573,7.237399999999907,25.302298437007952,41.78907300827486,0.09663058638549328,0.015761201001376065,0.1903168046876641,0.01962421026619032,2.0116471033970647,0.3320702035720207,1.396453515966109
246,7,9,3,False,soft,m,21,2022-11-10 10:41:45.411461,results/221110_10.41_data_subj7_block3_trial9.csv,E020,1,140.0,50.0,190.0,False,11.68,310,221110,10,41,3.6813999999999067,4.242799999999813,33.1330091069259,58.00718984040037,0.06426161755342742,0.012807224719769007,0.3069798221067432,0.06995879330613865,4.937347526942026,1.510762278269644,6.91138389796697
247,7,9,3,False,soft,m,21,2022-11-10 10:41:45.411461,results/221110_10.41_data_subj7_block3_trial9.csv,E033,2,80.0,50.0,130.0,True,11.68,311,221110,10,41,7.627200000000186,8.278,28.66269505448009,50.67510611131466,0.07275749393993833,0.012344334807680492,0.2644558613116213,0.020477059651748383,3.7361232240285314,0.6724237264420808,0.8233016027276954
248,7,11,3,False,soft,m,21,2022-11-10 10:41:45.411461,results/221110_10.41_data_subj7_block3_trial11.csv,E018,1,260.0,80.0,340.0,False,11.747,314,221110,10,41,3.5187999999998136,4.218399999999907,41.42055924338113,46.88991547939934,0.05995529843676571,0.012636811075639303,0.2464761334198897,0.038557349484165566,4.371168155677661,1.5753555712065477,3.75329908044204
249,7,12,3,False,soft,m,21,2022-11-10 10:41:45.411461,results/221110_10.41_data_subj7_block3_trial12.csv,E059,1,80.0,140.0,220.0,True,11.33,316,221110,10,41,3.266600000000093,4.202200000000186,37.674839674371896,40.50433521514089,0.08944869076494961,0.013828471535997578,0.21846820143992027,0.0112208509404042,2.496393798524886,0.3790205069091851,1.1501033880575533
250,7,12,3,False,soft,m,21,2022-11-10 10:41:45.411461,results/221110_10.41_data_subj7_block3_trial12.csv,E069,2,20.0,140.0,160.0,False,11.33,317,221110,10,41,7.1066000000000935,7.855,38.65365784073836,48.66674140764576,0.10751338728212274,0.016776717135410034,0.32320401994732556,0.04327107418354251,3.0465575089051375,0.42343763363311165,1.7115761906675349
251,7,13,3,False,soft,m,21,2022-11-10 10:41:45.411461,results/221110_10.41_data_subj7_block3_trial13.csv,E064,2,50.0,140.0,190.0,True,12.716,319,221110,10,41,7.586600000000093,8.636,44.17832605909914,43.2392345365392,0.08187958006236613,0.01816843452137773,0.20817548019481943,0.034235599094640176,2.5948111549048836,0.34571964379341985,1.5292102281778435
252,7,15,3,False,soft,m,21,2022-11-10 10:41:45.411461,results/221110_10.41_data_subj7_block3_trial15.csv,E056,1,110.0,170.0,280.0,False,11.545,322,221110,10,41,3.478,4.495,33.2795122970347,44.91186438047507,0.07185836635478972,0.022438733205503016,0.2386200057049141,0.04279677470796141,3.6183778127879034,1.4858047427423973,1.5590535334351607
253,7,15,3,False,soft,m,21,2022-11-10 10:41:45.411461,results/221110_10.41_data_subj7_block3_trial15.csv,E053,2,110.0,140.0,250.0,True,11.545,323,221110,10,41,7.236799999999814,7.952600000000093,45.75605733743116,58.95778228027103,0.05477364919241153,0.02726750722919974,0.20383665885626517,0.07538261803406231,4.208343286875585,2.0989049797078927,2.4802055158703347
254,7,17,3,False,soft,m,21,2022-11-10 10:41:45.411461,results/221110_10.41_data_subj7_block3_trial17.csv,E050,2,320.0,320.0,640.0,False,11.945,327,221110,10,41,8.115399999999907,9.091600000000094,29.39938829577791,38.62173576537569,0.05301134469135201,0.01586352299817827,0.3055668205559522,0.03578724506811775,6.222868783083453,1.8045667249318984,1.4019869905091418
255,7,21,3,False,soft,m,21,2022-11-10 10:41:45.411461,results/221110_10.41_data_subj7_block3_trial21.csv,E053,1,110.0,140.0,250.0,True,12.165,334,221110,10,41,3.1933999999999068,4.3323999999999065,50.13272224655758,39.391379074325904,0.06858098587316996,0.015540612267540312,0.19783254996130092,0.0380245944462936,2.951689708984677,0.5147000140208163,2.1852328868251436
256,7,22,3,False,soft,m,21,2022-11-10 10:41:45.411461,results/221110_10.41_data_subj7_block3_trial22.csv,E063,2,80.0,200.0,280.0,True,12.363,337,221110,10,41,7.700399999999907,8.383799999999814,35.36654389736766,47.77864434718795,0.06443189127153769,0.01035649617249047,0.14958872528258607,0.01580802271630604,2.3642976758831233,0.3420304531109493,1.8430998535534497
257,7,23,3,False,soft,m,21,2022-11-10 10:41:45.411461,results/221110_10.41_data_subj7_block3_trial23.csv,E053,1,110.0,140.0,250.0,True,12.031,338,221110,10,41,3.0467999999998137,4.015,31.206040599662682,45.38001761896373,0.060183543206651986,0.015502480265735476,0.1609405382513615,0.020223379498677977,2.7994861823132506,0.5930804982145795,2.2028037774326843
258,7,0,4,False,soft,m,21,2022-11-10 10:41:45.411461,results/221110_10.41_data_subj7_block4_trial0.csv,E063,2,80.0,200.0,280.0,True,9.584,343,221110,10,41,6.336799999999814,7.154399999999907,43.61012806696593,52.76685118733626,0.07068882532802802,0.01821048709962917,0.1688134734945696,0.025456764061097707,2.524173398153062,0.666549325760105,1.8503445924448652
259,7,3,4,False,soft,m,21,2022-11-10 10:41:45.411461,results/221110_10.41_data_subj7_block4_trial3.csv,E033,1,80.0,50.0,130.0,True,11.75,348,221110,10,41,3.356,4.088200000000186,49.0630212181625,54.017914525280965,0.05471869062298135,0.01640150718413516,0.2297706111203309,0.028516527329065133,4.61635982105214,1.7629188002809553,0.8915151463160712
260,7,6,4,False,soft,m,21,2022-11-10 10:41:45.411461,results/221110_10.41_data_subj7_block4_trial6.csv,E072,1,20.0,320.0,340.0,True,12.097,354,221110,10,41,3.600200000000186,3.958,37.70041684730188,97.60061253628217,0.0548971243171819,0.013272944852689417,0.42754440856806164,0.06452140232109259,8.245144901149265,2.367412974694892,1.7688586801025288
261,7,6,4,False,soft,m,21,2022-11-10 10:41:45.411461,results/221110_10.41_data_subj7_block4_trial6.csv,E019,2,440.0,140.0,580.0,False,12.097,355,221110,10,41,7.318,7.611,32.78465479539151,78.85681098243347,0.06642129437029558,0.019727795551195925,0.4532877574755464,0.04823552065373615,7.635535741058714,3.2009774966163045,16.68379329528047
262,7,8,4,False,soft,m,21,2022-11-10 10:41:45.411461,results/221110_10.41_data_subj7_block4_trial8.csv,E079,2,50.0,110.0,160.0,True,11.761,359,221110,10,41,7.692400000000372,8.562799999999815,35.74375800865264,41.04161410323146,0.059864147696312486,0.01802765154266562,0.138584714800971,0.02277133319862086,2.5061094380213973,0.8516647975570263,1.5545440245813802
263,7,9,4,False,soft,m,21,2022-11-10 10:41:45.411461,results/221110_10.41_data_subj7_block4_trial9.csv,E033,2,80.0,50.0,130.0,True,10.998,361,221110,10,41,7.413599999999628,8.010200000000186,33.803925718073984,66.93656034823141,0.060333601990538374,0.014412399087409409,0.2774958799477414,0.018229500952146233,4.918912411479479,1.4732920253305857,1.4913210134981478
264,7,11,4,False,soft,m,21,2022-11-10 10:41:45.411461,results/221110_10.41_data_subj7_block4_trial11.csv,E018,1,260.0,80.0,340.0,False,10.762,364,221110,10,41,3.4212000000001863,3.9174000000003724,25.682156865558483,41.49598609214459,0.05731797661702886,0.025885829918356425,0.2940476962577679,0.057313284532146125,6.4548410324863745,6.1273978763400345,1.5337212111126766
265,7,11,4,False,soft,m,21,2022-11-10 10:41:45.411461,results/221110_10.41_data_subj7_block4_trial11.csv,E017,2,170.0,50.0,220.0,True,10.762,365,221110,10,41,7.220400000000373,7.562200000000186,32.4272457997592,77.87608189024145,0.0575176149218345,0.015286019456743004,0.36972683231779363,0.040836522701663325,7.0465766906198715,2.7028426097529783,4.799841205970029
266,7,12,4,False,soft,m,21,2022-11-10 10:41:45.411461,results/221110_10.41_data_subj7_block4_trial12.csv,E059,1,80.0,140.0,220.0,False,11.279,366,221110,10,41,3.47,4.413599999999628,42.802765399347194,43.62359860728336,0.0815241742047125,0.02603304435607437,0.21283386167157514,0.03655777674310652,2.812953060625489,0.7759864882417724,1.6900817571401485
267,7,12,4,False,soft,m,21,2022-11-10 10:41:45.411461,results/221110_10.41_data_subj7_block4_trial12.csv,E069,2,20.0,140.0,160.0,True,11.279,367,221110,10,41,7.196,8.050200000000187,30.653554153629546,42.11156974825286,0.061711174244169935,0.01984647540038127,0.131165632825295,0.03434074587107121,2.225458201355194,0.5207562464846701,1.198410966795411
268,7,13,4,False,soft,m,21,2022-11-10 10:41:45.411461,results/221110_10.41_data_subj7_block4_trial13.csv,E064,2,50.0,140.0,190.0,True,10.457,369,221110,10,41,6.796799999999814,7.630599999999627,39.58127322332729,53.35010607586923,0.07221760996398018,0.018795042991101428,0.19418909371276336,0.04050753805809569,2.7740543370631854,0.5437878689148437,1.347252738213517
269,7,15,4,False,soft,m,21,2022-11-10 10:41:45.411461,results/221110_10.41_data_subj7_block4_trial15.csv,E053,2,110.0,140.0,250.0,True,11.465,373,221110,10,41,7.334400000000373,7.952599999999627,29.967221844324552,44.177373855708574,0.05754040562202325,0.014607156097067132,0.2102297226281975,0.031414911370303146,3.8526303367817185,0.9774892015722799,2.288281373693016
270,7,16,4,False,soft,m,21,2022-11-10 10:41:45.411461,results/221110_10.41_data_subj7_block4_trial16.csv,E021,1,560.0,200.0,760.0,False,11.431,374,221110,10,41,3.2584000000003726,3.7222000000001865,21.23834907810069,42.82285436646683,0.05870827635746287,0.018150041889369924,0.33430641812947154,0.05081790471699996,6.408918828694415,2.9151263907744216,7.916952688508498
271,7,16,4,False,soft,m,21,2022-11-10 10:41:45.411461,results/221110_10.41_data_subj7_block4_trial16.csv,E081,2,107.0,210.0,317.0,True,11.431,375,221110,10,41,7.139,7.855,45.502538958406376,54.4276167313846,0.05005600770444751,0.013110825135176508,0.23090209800566805,0.02030478598542677,4.981835800247903,1.5998275650580742,2.8972912695391755
272,7,17,4,False,soft,m,21,2022-11-10 10:41:45.411461,results/221110_10.41_data_subj7_block4_trial17.csv,E050,2,320.0,320.0,640.0,False,11.549,377,221110,10,41,6.545200000000186,6.895,33.60092616664647,86.67290992607253,0.06557052384791333,0.01670427244587683,0.3528800749383592,0.05599407037531157,5.69487994514227,1.6078385619058106,1.6179843133040779
273,7,18,4,False,soft,m,21,2022-11-10 10:41:45.411461,results/221110_10.41_data_subj7_block4_trial18.csv,E010,1,500.0,80.0,580.0,False,10.865,378,221110,10,41,3.0794000000003727,3.4617999999998137,29.811642192649586,68.40118565095385,0.06040593585710262,0.015708116056158638,0.3930603204208084,0.042396409001769726,7.013543783696073,2.381488901530299,13.22052544401559
274,7,20,4,False,soft,m,21,2022-11-10 10:41:45.411461,results/221110_10.41_data_subj7_block4_trial20.csv,E067,1,80.0,320.0,400.0,True,11.862,382,221110,10,41,2.8272000000001865,3.705799999999814,49.477684948705274,44.75324199980929,0.05033421442732238,0.0168587331463169,0.2353899048546419,0.030606330505490054,5.181308120495883,1.9011429324521536,0.899296234489488
