subj,trial,block,practice,condition,sex,age,date,data_file,texture_id,stim_order,diameter,opening,spacing,response,rt
9,0,0,True,rug,f,20,2022-11-15 10:24:14.731452,results/221115_10.24_data_subj9_block0_trial0_PRACTICE.csv,E007,0,200.0,20.0,220.0,True,3.6
9,0,0,True,rug,f,20,2022-11-15 10:24:14.731452,results/221115_10.24_data_subj9_block0_trial0_PRACTICE.csv,E047,1,140.0,140.0,280.0,False,3.6
9,1,0,True,rug,f,20,2022-11-15 10:24:14.731452,results/221115_10.24_data_subj9_block0_trial1_PRACTICE.csv,E063,0,80.0,200.0,280.0,True,10.131
9,1,0,True,rug,f,20,2022-11-15 10:24:14.731452,results/221115_10.24_data_subj9_block0_trial1_PRACTICE.csv,E005,1,380.0,20.0,400.0,False,10.131
9,2,0,True,rug,f,20,2022-11-15 10:24:14.731452,results/221115_10.24_data_subj9_block0_trial2_PRACTICE.csv,E083(S38),0,107.0,27.0,134.0,False,10.864
9,2,0,True,rug,f,20,2022-11-15 10:24:14.731452,results/221115_10.24_data_subj9_block0_trial2_PRACTICE.csv,E019,1,440.0,140.0,580.0,True,10.864
9,3,0,True,rug,f,20,2022-11-15 10:24:14.731452,results/221115_10.24_data_subj9_block0_trial3_PRACTICE.csv,E058,0,50.0,80.0,130.0,False,10.512
9,3,0,True,rug,f,20,2022-11-15 10:24:14.731452,results/221115_10.24_data_subj9_block0_trial3_PRACTICE.csv,E068,1,20.0,80.0,100.0,True,10.512
9,4,0,True,rug,f,20,2022-11-15 10:24:14.731452,results/221115_10.24_data_subj9_block0_trial4_PRACTICE.csv,E052,0,260.0,320.0,580.0,True,0.784
9,4,0,True,rug,f,20,2022-11-15 10:24:14.731452,results/221115_10.24_data_subj9_block0_trial4_PRACTICE.csv,E054,1,200.0,260.0,460.0,False,0.784
9,0,1,False,rug,f,20,2022-11-15 10:24:14.731452,results/221115_10.24_data_subj9_block1_trial0.csv,E042,0,380.0,320.0,700.0,True,8.264
9,0,1,False,rug,f,20,2022-11-15 10:24:14.731452,results/221115_10.24_data_subj9_block1_trial0.csv,E067,1,80.0,320.0,400.0,False,8.264
9,1,1,False,rug,f,20,2022-11-15 10:24:14.731452,results/221115_10.24_data_subj9_block1_trial1.csv,E076(S43),0,50.0,50.0,100.0,True,7.165
9,1,1,False,rug,f,20,2022-11-15 10:24:14.731452,results/221115_10.24_data_subj9_block1_trial1.csv,E059,1,80.0,140.0,220.0,False,7.165
9,2,1,False,rug,f,20,2022-11-15 10:24:14.731452,results/221115_10.24_data_subj9_block1_trial2.csv,E064,0,50.0,140.0,190.0,True,7.116
9,2,1,False,rug,f,20,2022-11-15 10:24:14.731452,results/221115_10.24_data_subj9_block1_trial2.csv,E075(S42),1,20.0,20.0,40.0,False,7.116
9,3,1,False,rug,f,20,2022-11-15 10:24:14.731452,results/221115_10.24_data_subj9_block1_trial3.csv,E022,0,380.0,140.0,520.0,False,7.149
9,3,1,False,rug,f,20,2022-11-15 10:24:14.731452,results/221115_10.24_data_subj9_block1_trial3.csv,E021,1,560.0,200.0,760.0,True,7.149
9,4,1,False,rug,f,20,2022-11-15 10:24:14.731452,results/221115_10.24_data_subj9_block1_trial4.csv,E019,0,440.0,140.0,580.0,False,5.896
9,4,1,False,rug,f,20,2022-11-15 10:24:14.731452,results/221115_10.24_data_subj9_block1_trial4.csv,E011,1,440.0,80.0,520.0,True,5.896
9,5,1,False,rug,f,20,2022-11-15 10:24:14.731452,results/221115_10.24_data_subj9_block1_trial5.csv,E027,0,170.0,80.0,250.0,False,7.114
9,5,1,False,rug,f,20,2022-11-15 10:24:14.731452,results/221115_10.24_data_subj9_block1_trial5.csv,E057,1,200.0,320.0,520.0,True,7.114
9,6,1,False,rug,f,20,2022-11-15 10:24:14.731452,results/221115_10.24_data_subj9_block1_trial6.csv,E026,0,440.0,200.0,640.0,True,5.748
9,6,1,False,rug,f,20,2022-11-15 10:24:14.731452,results/221115_10.24_data_subj9_block1_trial6.csv,E014,1,320.0,80.0,400.0,False,5.748
9,7,1,False,rug,f,20,2022-11-15 10:24:14.731452,results/221115_10.24_data_subj9_block1_trial7.csv,E078(S45),0,80.0,110.0,190.0,False,4.949
9,7,1,False,rug,f,20,2022-11-15 10:24:14.731452,results/221115_10.24_data_subj9_block1_trial7.csv,E040,1,260.0,200.0,460.0,True,4.949
9,8,1,False,rug,f,20,2022-11-15 10:24:14.731452,results/221115_10.24_data_subj9_block1_trial8.csv,E001,0,560.0,20.0,580.0,True,6.498
9,8,1,False,rug,f,20,2022-11-15 10:24:14.731452,results/221115_10.24_data_subj9_block1_trial8.csv,E058,1,50.0,80.0,130.0,False,6.498
9,9,1,False,rug,f,20,2022-11-15 10:24:14.731452,results/221115_10.24_data_subj9_block1_trial9.csv,E032,0,440.0,260.0,700.0,True,6.115
9,9,1,False,rug,f,20,2022-11-15 10:24:14.731452,results/221115_10.24_data_subj9_block1_trial9.csv,E065,1,80.0,260.0,340.0,False,6.115
9,10,1,False,rug,f,20,2022-11-15 10:24:14.731452,results/221115_10.24_data_subj9_block1_trial10.csv,E021,0,560.0,200.0,760.0,True,5.598
9,10,1,False,rug,f,20,2022-11-15 10:24:14.731452,results/221115_10.24_data_subj9_block1_trial10.csv,E046,1,200.0,200.0,400.0,False,5.598
9,11,1,False,rug,f,20,2022-11-15 10:24:14.731452,results/221115_10.24_data_subj9_block1_trial11.csv,E024,0,500.0,200.0,700.0,True,5.478
9,11,1,False,rug,f,20,2022-11-15 10:24:14.731452,results/221115_10.24_data_subj9_block1_trial11.csv,E072,1,20.0,320.0,340.0,False,5.478
9,12,1,False,rug,f,20,2022-11-15 10:24:14.731452,results/221115_10.24_data_subj9_block1_trial12.csv,E060,0,140.0,260.0,400.0,True,5.984
9,12,1,False,rug,f,20,2022-11-15 10:24:14.731452,results/221115_10.24_data_subj9_block1_trial12.csv,E046,1,200.0,200.0,400.0,False,5.984
9,13,1,False,rug,f,20,2022-11-15 10:24:14.731452,results/221115_10.24_data_subj9_block1_trial13.csv,E028,0,500.0,260.0,760.0,True,6.315
9,13,1,False,rug,f,20,2022-11-15 10:24:14.731452,results/221115_10.24_data_subj9_block1_trial13.csv,E027,1,170.0,80.0,250.0,False,6.315
9,14,1,False,rug,f,20,2022-11-15 10:24:14.731452,results/221115_10.24_data_subj9_block1_trial14.csv,E033,0,80.0,50.0,130.0,False,6.748
9,14,1,False,rug,f,20,2022-11-15 10:24:14.731452,results/221115_10.24_data_subj9_block1_trial14.csv,E037,1,200.0,140.0,340.0,True,6.748
9,15,1,False,rug,f,20,2022-11-15 10:24:14.731452,results/221115_10.24_data_subj9_block1_trial15.csv,E059,0,80.0,140.0,220.0,False,6.18
9,15,1,False,rug,f,20,2022-11-15 10:24:14.731452,results/221115_10.24_data_subj9_block1_trial15.csv,E054,1,200.0,260.0,460.0,True,6.18
9,16,1,False,rug,f,20,2022-11-15 10:24:14.731452,results/221115_10.24_data_subj9_block1_trial16.csv,E040,0,260.0,200.0,460.0,True,5.848
9,16,1,False,rug,f,20,2022-11-15 10:24:14.731452,results/221115_10.24_data_subj9_block1_trial16.csv,E064,1,50.0,140.0,190.0,False,5.848
9,17,1,False,rug,f,20,2022-11-15 10:24:14.731452,results/221115_10.24_data_subj9_block1_trial17.csv,E010,0,500.0,80.0,580.0,False,6.566
9,17,1,False,rug,f,20,2022-11-15 10:24:14.731452,results/221115_10.24_data_subj9_block1_trial17.csv,E042,1,380.0,320.0,700.0,True,6.566
9,18,1,False,rug,f,20,2022-11-15 10:24:14.731452,results/221115_10.24_data_subj9_block1_trial18.csv,E059,0,80.0,140.0,220.0,False,6.165
9,18,1,False,rug,f,20,2022-11-15 10:24:14.731452,results/221115_10.24_data_subj9_block1_trial18.csv,E070,1,20.0,200.0,220.0,True,6.165
9,19,1,False,rug,f,20,2022-11-15 10:24:14.731452,results/221115_10.24_data_subj9_block1_trial19.csv,E044,0,170.0,140.0,310.0,True,5.915
9,19,1,False,rug,f,20,2022-11-15 10:24:14.731452,results/221115_10.24_data_subj9_block1_trial19.csv,E009,1,560.0,80.0,640.0,False,5.915
9,20,1,False,rug,f,20,2022-11-15 10:24:14.731452,results/221115_10.24_data_subj9_block1_trial20.csv,E018,0,260.0,80.0,340.0,True,6.618
9,20,1,False,rug,f,20,2022-11-15 10:24:14.731452,results/221115_10.24_data_subj9_block1_trial20.csv,E031,1,140.0,80.0,220.0,False,6.618
9,21,1,False,rug,f,20,2022-11-15 10:24:14.731452,results/221115_10.24_data_subj9_block1_trial21.csv,E003,0,440.0,20.0,460.0,True,5.732
9,21,1,False,rug,f,20,2022-11-15 10:24:14.731452,results/221115_10.24_data_subj9_block1_trial21.csv,E068,1,20.0,80.0,100.0,False,5.732
9,22,1,False,rug,f,20,2022-11-15 10:24:14.731452,results/221115_10.24_data_subj9_block1_trial22.csv,E083(S38),0,107.0,27.0,134.0,True,6.546
9,22,1,False,rug,f,20,2022-11-15 10:24:14.731452,results/221115_10.24_data_subj9_block1_trial22.csv,E079(S41),1,50.0,110.0,160.0,False,6.546
9,23,1,False,rug,f,20,2022-11-15 10:24:14.731452,results/221115_10.24_data_subj9_block1_trial23.csv,E066,0,50.0,170.0,220.0,True,5.677
9,23,1,False,rug,f,20,2022-11-15 10:24:14.731452,results/221115_10.24_data_subj9_block1_trial23.csv,E049,1,80.0,80.0,160.0,False,5.677
9,24,1,False,rug,f,20,2022-11-15 10:24:14.731452,results/221115_10.24_data_subj9_block1_trial24.csv,E038,0,110.0,80.0,190.0,False,6.429
9,24,1,False,rug,f,20,2022-11-15 10:24:14.731452,results/221115_10.24_data_subj9_block1_trial24.csv,E054,1,200.0,260.0,460.0,True,6.429
9,0,2,False,rug,f,20,2022-11-15 10:24:14.731452,results/221115_10.24_data_subj9_block2_trial0.csv,E047,0,140.0,140.0,280.0,True,6.132
9,0,2,False,rug,f,20,2022-11-15 10:24:14.731452,results/221115_10.24_data_subj9_block2_trial0.csv,E026,1,440.0,200.0,640.0,False,6.132
9,1,2,False,rug,f,20,2022-11-15 10:24:14.731452,results/221115_10.24_data_subj9_block2_trial1.csv,E056,0,110.0,170.0,280.0,True,5.265
9,1,2,False,rug,f,20,2022-11-15 10:24:14.731452,results/221115_10.24_data_subj9_block2_trial1.csv,E009,1,560.0,80.0,640.0,False,5.265
9,2,2,False,rug,f,20,2022-11-15 10:24:14.731452,results/221115_10.24_data_subj9_block2_trial2.csv,E063,0,80.0,200.0,280.0,True,6.148
9,2,2,False,rug,f,20,2022-11-15 10:24:14.731452,results/221115_10.24_data_subj9_block2_trial2.csv,E047,1,140.0,140.0,280.0,False,6.148
9,3,2,False,rug,f,20,2022-11-15 10:24:14.731452,results/221115_10.24_data_subj9_block2_trial3.csv,E074(S39),0,110.0,50.0,160.0,True,6.378
9,3,2,False,rug,f,20,2022-11-15 10:24:14.731452,results/221115_10.24_data_subj9_block2_trial3.csv,E013,1,80.0,20.0,100.0,False,6.378
9,4,2,False,rug,f,20,2022-11-15 10:24:14.731452,results/221115_10.24_data_subj9_block2_trial4.csv,E027,0,170.0,80.0,250.0,False,6.198
9,4,2,False,rug,f,20,2022-11-15 10:24:14.731452,results/221115_10.24_data_subj9_block2_trial4.csv,E065,1,80.0,260.0,340.0,True,6.198
9,5,2,False,rug,f,20,2022-11-15 10:24:14.731452,results/221115_10.24_data_subj9_block2_trial5.csv,E043,0,320.0,260.0,580.0,True,6.314
9,5,2,False,rug,f,20,2022-11-15 10:24:14.731452,results/221115_10.24_data_subj9_block2_trial5.csv,E059,1,80.0,140.0,220.0,False,6.314
9,6,2,False,rug,f,20,2022-11-15 10:24:14.731452,results/221115_10.24_data_subj9_block2_trial6.csv,E074(S39),0,110.0,50.0,160.0,False,6.78
9,6,2,False,rug,f,20,2022-11-15 10:24:14.731452,results/221115_10.24_data_subj9_block2_trial6.csv,E021,1,560.0,200.0,760.0,True,6.78
9,7,2,False,rug,f,20,2022-11-15 10:24:14.731452,results/221115_10.24_data_subj9_block2_trial7.csv,E003,0,440.0,20.0,460.0,True,6.618
9,7,2,False,rug,f,20,2022-11-15 10:24:14.731452,results/221115_10.24_data_subj9_block2_trial7.csv,E019,1,440.0,140.0,580.0,False,6.618
9,8,2,False,rug,f,20,2022-11-15 10:24:14.731452,results/221115_10.24_data_subj9_block2_trial8.csv,E056,0,110.0,170.0,280.0,True,6.047
9,8,2,False,rug,f,20,2022-11-15 10:24:14.731452,results/221115_10.24_data_subj9_block2_trial8.csv,E018,1,260.0,80.0,340.0,False,6.047
9,9,2,False,rug,f,20,2022-11-15 10:24:14.731452,results/221115_10.24_data_subj9_block2_trial9.csv,E006,0,260.0,20.0,280.0,True,6.246
9,9,2,False,rug,f,20,2022-11-15 10:24:14.731452,results/221115_10.24_data_subj9_block2_trial9.csv,E063,1,80.0,200.0,280.0,False,6.246
9,10,2,False,rug,f,20,2022-11-15 10:24:14.731452,results/221115_10.24_data_subj9_block2_trial10.csv,E063,0,80.0,200.0,280.0,False,6.964
9,10,2,False,rug,f,20,2022-11-15 10:24:14.731452,results/221115_10.24_data_subj9_block2_trial10.csv,E024,1,500.0,200.0,700.0,True,6.964
9,11,2,False,rug,f,20,2022-11-15 10:24:14.731452,results/221115_10.24_data_subj9_block2_trial11.csv,E082(S40),0,22.0,113.0,135.0,True,5.922
9,11,2,False,rug,f,20,2022-11-15 10:24:14.731452,results/221115_10.24_data_subj9_block2_trial11.csv,E021,1,560.0,200.0,760.0,False,5.922
9,12,2,False,rug,f,20,2022-11-15 10:24:14.731452,results/221115_10.24_data_subj9_block2_trial12.csv,E009,0,560.0,80.0,640.0,True,6.647
9,12,2,False,rug,f,20,2022-11-15 10:24:14.731452,results/221115_10.24_data_subj9_block2_trial12.csv,E051,1,140.0,170.0,310.0,False,6.647
9,13,2,False,rug,f,20,2022-11-15 10:24:14.731452,results/221115_10.24_data_subj9_block2_trial13.csv,E048,0,170.0,170.0,340.0,False,5.881
9,13,2,False,rug,f,20,2022-11-15 10:24:14.731452,results/221115_10.24_data_subj9_block2_trial13.csv,E040,1,260.0,200.0,460.0,True,5.881
9,14,2,False,rug,f,20,2022-11-15 10:24:14.731452,results/221115_10.24_data_subj9_block2_trial14.csv,E073(S18),0,797.0,116.0,913.0,True,5.814
9,14,2,False,rug,f,20,2022-11-15 10:24:14.731452,results/221115_10.24_data_subj9_block2_trial14.csv,E065,1,80.0,260.0,340.0,False,5.814
9,15,2,False,rug,f,20,2022-11-15 10:24:14.731452,results/221115_10.24_data_subj9_block2_trial15.csv,E046,0,200.0,200.0,400.0,True,6.397
9,15,2,False,rug,f,20,2022-11-15 10:24:14.731452,results/221115_10.24_data_subj9_block2_trial15.csv,E041,1,140.0,110.0,250.0,False,6.397
9,16,2,False,rug,f,20,2022-11-15 10:24:14.731452,results/221115_10.24_data_subj9_block2_trial16.csv,E058,0,50.0,80.0,130.0,True,6.248
9,16,2,False,rug,f,20,2022-11-15 10:24:14.731452,results/221115_10.24_data_subj9_block2_trial16.csv,E013,1,80.0,20.0,100.0,False,6.248
9,17,2,False,rug,f,20,2022-11-15 10:24:14.731452,results/221115_10.24_data_subj9_block2_trial17.csv,E016,0,500.0,140.0,640.0,True,5.679
9,17,2,False,rug,f,20,2022-11-15 10:24:14.731452,results/221115_10.24_data_subj9_block2_trial17.csv,E053,1,110.0,140.0,250.0,False,5.679
9,18,2,False,rug,f,20,2022-11-15 10:24:14.731452,results/221115_10.24_data_subj9_block2_trial18.csv,E076(S43),0,50.0,50.0,100.0,False,6.53
9,18,2,False,rug,f,20,2022-11-15 10:24:14.731452,results/221115_10.24_data_subj9_block2_trial18.csv,E025,1,320.0,140.0,460.0,True,6.53
9,19,2,False,rug,f,20,2022-11-15 10:24:14.731452,results/221115_10.24_data_subj9_block2_trial19.csv,E019,0,440.0,140.0,580.0,True,5.732
9,19,2,False,rug,f,20,2022-11-15 10:24:14.731452,results/221115_10.24_data_subj9_block2_trial19.csv,E077(S32),1,110.0,110.0,220.0,False,5.732
9,20,2,False,rug,f,20,2022-11-15 10:24:14.731452,results/221115_10.24_data_subj9_block2_trial20.csv,E064,0,50.0,140.0,190.0,False,5.76
9,20,2,False,rug,f,20,2022-11-15 10:24:14.731452,results/221115_10.24_data_subj9_block2_trial20.csv,E024,1,500.0,200.0,700.0,True,5.76
9,21,2,False,rug,f,20,2022-11-15 10:24:14.731452,results/221115_10.24_data_subj9_block2_trial21.csv,E052,0,260.0,320.0,580.0,True,5.782
9,21,2,False,rug,f,20,2022-11-15 10:24:14.731452,results/221115_10.24_data_subj9_block2_trial21.csv,E076(S43),1,50.0,50.0,100.0,False,5.782
9,22,2,False,rug,f,20,2022-11-15 10:24:14.731452,results/221115_10.24_data_subj9_block2_trial22.csv,E035,0,170.0,110.0,280.0,True,6.163
9,22,2,False,rug,f,20,2022-11-15 10:24:14.731452,results/221115_10.24_data_subj9_block2_trial22.csv,E048,1,170.0,170.0,340.0,False,6.163
9,23,2,False,rug,f,20,2022-11-15 10:24:14.731452,results/221115_10.24_data_subj9_block2_trial23.csv,E081(S03),0,107.0,210.0,317.0,True,7.597
9,23,2,False,rug,f,20,2022-11-15 10:24:14.731452,results/221115_10.24_data_subj9_block2_trial23.csv,E046,1,200.0,200.0,400.0,False,7.597
9,24,2,False,rug,f,20,2022-11-15 10:24:14.731452,results/221115_10.24_data_subj9_block2_trial24.csv,E030,0,260.0,140.0,400.0,True,5.864
9,24,2,False,rug,f,20,2022-11-15 10:24:14.731452,results/221115_10.24_data_subj9_block2_trial24.csv,E049,1,80.0,80.0,160.0,False,5.864
9,0,3,False,rug,f,20,2022-11-15 10:24:14.731452,results/221115_10.24_data_subj9_block3_trial0.csv,E036,0,380.0,260.0,640.0,True,6.598
9,0,3,False,rug,f,20,2022-11-15 10:24:14.731452,results/221115_10.24_data_subj9_block3_trial0.csv,E034,1,320.0,200.0,520.0,False,6.598
9,1,3,False,rug,f,20,2022-11-15 10:24:14.731452,results/221115_10.24_data_subj9_block3_trial1.csv,E020,0,140.0,50.0,190.0,True,5.615
9,1,3,False,rug,f,20,2022-11-15 10:24:14.731452,results/221115_10.24_data_subj9_block3_trial1.csv,E075(S42),1,20.0,20.0,40.0,False,5.615
9,2,3,False,rug,f,20,2022-11-15 10:24:14.731452,results/221115_10.24_data_subj9_block3_trial2.csv,E053,0,110.0,140.0,250.0,True,5.567
9,2,3,False,rug,f,20,2022-11-15 10:24:14.731452,results/221115_10.24_data_subj9_block3_trial2.csv,E035,1,170.0,110.0,280.0,False,5.567
9,3,3,False,rug,f,20,2022-11-15 10:24:14.731452,results/221115_10.24_data_subj9_block3_trial3.csv,E049,0,80.0,80.0,160.0,False,5.849
9,3,3,False,rug,f,20,2022-11-15 10:24:14.731452,results/221115_10.24_data_subj9_block3_trial3.csv,E042,1,380.0,320.0,700.0,True,5.849
9,4,3,False,rug,f,20,2022-11-15 10:24:14.731452,results/221115_10.24_data_subj9_block3_trial4.csv,E030,0,260.0,140.0,400.0,False,5.982
9,4,3,False,rug,f,20,2022-11-15 10:24:14.731452,results/221115_10.24_data_subj9_block3_trial4.csv,E042,1,380.0,320.0,700.0,True,5.982
9,5,3,False,rug,f,20,2022-11-15 10:24:14.731452,results/221115_10.24_data_subj9_block3_trial5.csv,E062,0,140.0,320.0,460.0,True,5.949
9,5,3,False,rug,f,20,2022-11-15 10:24:14.731452,results/221115_10.24_data_subj9_block3_trial5.csv,E029,1,380.0,200.0,580.0,False,5.949
9,6,3,False,rug,f,20,2022-11-15 10:24:14.731452,results/221115_10.24_data_subj9_block3_trial6.csv,E023,0,200.0,80.0,280.0,True,6.33
9,6,3,False,rug,f,20,2022-11-15 10:24:14.731452,results/221115_10.24_data_subj9_block3_trial6.csv,E056,1,110.0,170.0,280.0,False,6.33
9,7,3,False,rug,f,20,2022-11-15 10:24:14.731452,results/221115_10.24_data_subj9_block3_trial7.csv,E054,0,200.0,260.0,460.0,True,5.233
9,7,3,False,rug,f,20,2022-11-15 10:24:14.731452,results/221115_10.24_data_subj9_block3_trial7.csv,E031,1,140.0,80.0,220.0,False,5.233
9,8,3,False,rug,f,20,2022-11-15 10:24:14.731452,results/221115_10.24_data_subj9_block3_trial8.csv,E012,0,380.0,80.0,460.0,True,5.698
9,8,3,False,rug,f,20,2022-11-15 10:24:14.731452,results/221115_10.24_data_subj9_block3_trial8.csv,E017,1,170.0,50.0,220.0,False,5.698
9,9,3,False,rug,f,20,2022-11-15 10:24:14.731452,results/221115_10.24_data_subj9_block3_trial9.csv,E045,0,260.0,260.0,520.0,True,5.898
9,9,3,False,rug,f,20,2022-11-15 10:24:14.731452,results/221115_10.24_data_subj9_block3_trial9.csv,E016,1,500.0,140.0,640.0,False,5.898
9,10,3,False,rug,f,20,2022-11-15 10:24:14.731452,results/221115_10.24_data_subj9_block3_trial10.csv,E046,0,200.0,200.0,400.0,True,5.467
9,10,3,False,rug,f,20,2022-11-15 10:24:14.731452,results/221115_10.24_data_subj9_block3_trial10.csv,E061,1,80.0,170.0,250.0,False,5.467
9,11,3,False,rug,f,20,2022-11-15 10:24:14.731452,results/221115_10.24_data_subj9_block3_trial11.csv,E074(S39),0,110.0,50.0,160.0,False,6.364
9,11,3,False,rug,f,20,2022-11-15 10:24:14.731452,results/221115_10.24_data_subj9_block3_trial11.csv,E030,1,260.0,140.0,400.0,True,6.364
9,12,3,False,rug,f,20,2022-11-15 10:24:14.731452,results/221115_10.24_data_subj9_block3_trial12.csv,E004,0,320.0,20.0,340.0,False,5.648
9,12,3,False,rug,f,20,2022-11-15 10:24:14.731452,results/221115_10.24_data_subj9_block3_trial12.csv,E071,1,20.0,260.0,280.0,True,5.648
9,13,3,False,rug,f,20,2022-11-15 10:24:14.731452,results/221115_10.24_data_subj9_block3_trial13.csv,E002,0,500.0,20.0,520.0,False,5.433
9,13,3,False,rug,f,20,2022-11-15 10:24:14.731452,results/221115_10.24_data_subj9_block3_trial13.csv,E045,1,260.0,260.0,520.0,True,5.433
9,14,3,False,rug,f,20,2022-11-15 10:24:14.731452,results/221115_10.24_data_subj9_block3_trial14.csv,E025,0,320.0,140.0,460.0,True,6.714
9,14,3,False,rug,f,20,2022-11-15 10:24:14.731452,results/221115_10.24_data_subj9_block3_trial14.csv,E061,1,80.0,170.0,250.0,False,6.714
9,15,3,False,rug,f,20,2022-11-15 10:24:14.731452,results/221115_10.24_data_subj9_block3_trial15.csv,E002,0,500.0,20.0,520.0,False,5.316
9,15,3,False,rug,f,20,2022-11-15 10:24:14.731452,results/221115_10.24_data_subj9_block3_trial15.csv,E060,1,140.0,260.0,400.0,True,5.316
9,16,3,False,rug,f,20,2022-11-15 10:24:14.731452,results/221115_10.24_data_subj9_block3_trial16.csv,E010,0,500.0,80.0,580.0,True,6.83
9,16,3,False,rug,f,20,2022-11-15 10:24:14.731452,results/221115_10.24_data_subj9_block3_trial16.csv,E017,1,170.0,50.0,220.0,False,6.83
9,17,3,False,rug,f,20,2022-11-15 10:24:14.731452,results/221115_10.24_data_subj9_block3_trial17.csv,E016,0,500.0,140.0,640.0,True,5.613
9,17,3,False,rug,f,20,2022-11-15 10:24:14.731452,results/221115_10.24_data_subj9_block3_trial17.csv,E059,1,80.0,140.0,220.0,False,5.613
9,18,3,False,rug,f,20,2022-11-15 10:24:14.731452,results/221115_10.24_data_subj9_block3_trial18.csv,E008,0,140.0,20.0,160.0,True,5.581
9,18,3,False,rug,f,20,2022-11-15 10:24:14.731452,results/221115_10.24_data_subj9_block3_trial18.csv,E064,1,50.0,140.0,190.0,False,5.581
9,19,3,False,rug,f,20,2022-11-15 10:24:14.731452,results/221115_10.24_data_subj9_block3_trial19.csv,E055,0,140.0,200.0,340.0,True,5.678
9,19,3,False,rug,f,20,2022-11-15 10:24:14.731452,results/221115_10.24_data_subj9_block3_trial19.csv,E078(S45),1,80.0,110.0,190.0,False,5.678
9,20,3,False,rug,f,20,2022-11-15 10:24:14.731452,results/221115_10.24_data_subj9_block3_trial20.csv,E048,0,170.0,170.0,340.0,True,5.95
9,20,3,False,rug,f,20,2022-11-15 10:24:14.731452,results/221115_10.24_data_subj9_block3_trial20.csv,E012,1,380.0,80.0,460.0,False,5.95
9,21,3,False,rug,f,20,2022-11-15 10:24:14.731452,results/221115_10.24_data_subj9_block3_trial21.csv,E075(S42),0,20.0,20.0,40.0,True,5.53
9,21,3,False,rug,f,20,2022-11-15 10:24:14.731452,results/221115_10.24_data_subj9_block3_trial21.csv,E068,1,20.0,80.0,100.0,False,5.53
9,22,3,False,rug,f,20,2022-11-15 10:24:14.731452,results/221115_10.24_data_subj9_block3_trial22.csv,E072,0,20.0,320.0,340.0,False,5.264
9,22,3,False,rug,f,20,2022-11-15 10:24:14.731452,results/221115_10.24_data_subj9_block3_trial22.csv,E032,1,440.0,260.0,700.0,True,5.264
9,23,3,False,rug,f,20,2022-11-15 10:24:14.731452,results/221115_10.24_data_subj9_block3_trial23.csv,E030,0,260.0,140.0,400.0,True,5.547
9,23,3,False,rug,f,20,2022-11-15 10:24:14.731452,results/221115_10.24_data_subj9_block3_trial23.csv,E031,1,140.0,80.0,220.0,False,5.547
9,24,3,False,rug,f,20,2022-11-15 10:24:14.731452,results/221115_10.24_data_subj9_block3_trial24.csv,E071,0,20.0,260.0,280.0,True,6.232
9,24,3,False,rug,f,20,2022-11-15 10:24:14.731452,results/221115_10.24_data_subj9_block3_trial24.csv,E069,1,20.0,140.0,160.0,False,6.232
9,0,4,False,rug,f,20,2022-11-15 10:24:14.731452,results/221115_10.24_data_subj9_block4_trial0.csv,E036,0,380.0,260.0,640.0,True,5.431
9,0,4,False,rug,f,20,2022-11-15 10:24:14.731452,results/221115_10.24_data_subj9_block4_trial0.csv,E034,1,320.0,200.0,520.0,False,5.431
9,1,4,False,rug,f,20,2022-11-15 10:24:14.731452,results/221115_10.24_data_subj9_block4_trial1.csv,E020,0,140.0,50.0,190.0,True,6.3
9,1,4,False,rug,f,20,2022-11-15 10:24:14.731452,results/221115_10.24_data_subj9_block4_trial1.csv,E075(S42),1,20.0,20.0,40.0,False,6.3
9,2,4,False,rug,f,20,2022-11-15 10:24:14.731452,results/221115_10.24_data_subj9_block4_trial2.csv,E053,0,110.0,140.0,250.0,True,5.614
9,2,4,False,rug,f,20,2022-11-15 10:24:14.731452,results/221115_10.24_data_subj9_block4_trial2.csv,E035,1,170.0,110.0,280.0,False,5.614
9,3,4,False,rug,f,20,2022-11-15 10:24:14.731452,results/221115_10.24_data_subj9_block4_trial3.csv,E049,0,80.0,80.0,160.0,False,5.412
9,3,4,False,rug,f,20,2022-11-15 10:24:14.731452,results/221115_10.24_data_subj9_block4_trial3.csv,E042,1,380.0,320.0,700.0,True,5.412
9,4,4,False,rug,f,20,2022-11-15 10:24:14.731452,results/221115_10.24_data_subj9_block4_trial4.csv,E030,0,260.0,140.0,400.0,False,6.699
9,4,4,False,rug,f,20,2022-11-15 10:24:14.731452,results/221115_10.24_data_subj9_block4_trial4.csv,E042,1,380.0,320.0,700.0,True,6.699
9,5,4,False,rug,f,20,2022-11-15 10:24:14.731452,results/221115_10.24_data_subj9_block4_trial5.csv,E062,0,140.0,320.0,460.0,True,5.729
9,5,4,False,rug,f,20,2022-11-15 10:24:14.731452,results/221115_10.24_data_subj9_block4_trial5.csv,E029,1,380.0,200.0,580.0,False,5.729
9,6,4,False,rug,f,20,2022-11-15 10:24:14.731452,results/221115_10.24_data_subj9_block4_trial6.csv,E023,0,200.0,80.0,280.0,False,5.684
9,6,4,False,rug,f,20,2022-11-15 10:24:14.731452,results/221115_10.24_data_subj9_block4_trial6.csv,E056,1,110.0,170.0,280.0,True,5.684
9,7,4,False,rug,f,20,2022-11-15 10:24:14.731452,results/221115_10.24_data_subj9_block4_trial7.csv,E054,0,200.0,260.0,460.0,True,5.998
9,7,4,False,rug,f,20,2022-11-15 10:24:14.731452,results/221115_10.24_data_subj9_block4_trial7.csv,E031,1,140.0,80.0,220.0,False,5.998
9,8,4,False,rug,f,20,2022-11-15 10:24:14.731452,results/221115_10.24_data_subj9_block4_trial8.csv,E012,0,380.0,80.0,460.0,True,6.032
9,8,4,False,rug,f,20,2022-11-15 10:24:14.731452,results/221115_10.24_data_subj9_block4_trial8.csv,E017,1,170.0,50.0,220.0,False,6.032
9,9,4,False,rug,f,20,2022-11-15 10:24:14.731452,results/221115_10.24_data_subj9_block4_trial9.csv,E045,0,260.0,260.0,520.0,True,6.265
9,9,4,False,rug,f,20,2022-11-15 10:24:14.731452,results/221115_10.24_data_subj9_block4_trial9.csv,E016,1,500.0,140.0,640.0,False,6.265
9,10,4,False,rug,f,20,2022-11-15 10:24:14.731452,results/221115_10.24_data_subj9_block4_trial10.csv,E046,0,200.0,200.0,400.0,True,5.412
9,10,4,False,rug,f,20,2022-11-15 10:24:14.731452,results/221115_10.24_data_subj9_block4_trial10.csv,E061,1,80.0,170.0,250.0,False,5.412
9,11,4,False,rug,f,20,2022-11-15 10:24:14.731452,results/221115_10.24_data_subj9_block4_trial11.csv,E074(S39),0,110.0,50.0,160.0,False,5.43
9,11,4,False,rug,f,20,2022-11-15 10:24:14.731452,results/221115_10.24_data_subj9_block4_trial11.csv,E030,1,260.0,140.0,400.0,True,5.43
9,12,4,False,rug,f,20,2022-11-15 10:24:14.731452,results/221115_10.24_data_subj9_block4_trial12.csv,E004,0,320.0,20.0,340.0,False,5.93
9,12,4,False,rug,f,20,2022-11-15 10:24:14.731452,results/221115_10.24_data_subj9_block4_trial12.csv,E071,1,20.0,260.0,280.0,True,5.93
9,13,4,False,rug,f,20,2022-11-15 10:24:14.731452,results/221115_10.24_data_subj9_block4_trial13.csv,E002,0,500.0,20.0,520.0,False,6.65
9,13,4,False,rug,f,20,2022-11-15 10:24:14.731452,results/221115_10.24_data_subj9_block4_trial13.csv,E045,1,260.0,260.0,520.0,True,6.65
9,14,4,False,rug,f,20,2022-11-15 10:24:14.731452,results/221115_10.24_data_subj9_block4_trial14.csv,E025,0,320.0,140.0,460.0,True,5.597
9,14,4,False,rug,f,20,2022-11-15 10:24:14.731452,results/221115_10.24_data_subj9_block4_trial14.csv,E061,1,80.0,170.0,250.0,False,5.597
9,15,4,False,rug,f,20,2022-11-15 10:24:14.731452,results/221115_10.24_data_subj9_block4_trial15.csv,E002,0,500.0,20.0,520.0,False,5.097
9,15,4,False,rug,f,20,2022-11-15 10:24:14.731452,results/221115_10.24_data_subj9_block4_trial15.csv,E060,1,140.0,260.0,400.0,True,5.097
9,16,4,False,rug,f,20,2022-11-15 10:24:14.731452,results/221115_10.24_data_subj9_block4_trial16.csv,E010,0,500.0,80.0,580.0,True,5.614
9,16,4,False,rug,f,20,2022-11-15 10:24:14.731452,results/221115_10.24_data_subj9_block4_trial16.csv,E017,1,170.0,50.0,220.0,False,5.614
9,17,4,False,rug,f,20,2022-11-15 10:24:14.731452,results/221115_10.24_data_subj9_block4_trial17.csv,E016,0,500.0,140.0,640.0,True,5.868
9,17,4,False,rug,f,20,2022-11-15 10:24:14.731452,results/221115_10.24_data_subj9_block4_trial17.csv,E059,1,80.0,140.0,220.0,False,5.868
9,18,4,False,rug,f,20,2022-11-15 10:24:14.731452,results/221115_10.24_data_subj9_block4_trial18.csv,E008,0,140.0,20.0,160.0,False,5.647
9,18,4,False,rug,f,20,2022-11-15 10:24:14.731452,results/221115_10.24_data_subj9_block4_trial18.csv,E064,1,50.0,140.0,190.0,True,5.647
9,19,4,False,rug,f,20,2022-11-15 10:24:14.731452,results/221115_10.24_data_subj9_block4_trial19.csv,E055,0,140.0,200.0,340.0,True,5.299
9,19,4,False,rug,f,20,2022-11-15 10:24:14.731452,results/221115_10.24_data_subj9_block4_trial19.csv,E078(S45),1,80.0,110.0,190.0,False,5.299
9,20,4,False,rug,f,20,2022-11-15 10:24:14.731452,results/221115_10.24_data_subj9_block4_trial20.csv,E048,0,170.0,170.0,340.0,False,5.764
9,20,4,False,rug,f,20,2022-11-15 10:24:14.731452,results/221115_10.24_data_subj9_block4_trial20.csv,E012,1,380.0,80.0,460.0,True,5.764
9,21,4,False,rug,f,20,2022-11-15 10:24:14.731452,results/221115_10.24_data_subj9_block4_trial21.csv,E075(S42),0,20.0,20.0,40.0,True,5.616
9,21,4,False,rug,f,20,2022-11-15 10:24:14.731452,results/221115_10.24_data_subj9_block4_trial21.csv,E068,1,20.0,80.0,100.0,False,5.616
9,22,4,False,rug,f,20,2022-11-15 10:24:14.731452,results/221115_10.24_data_subj9_block4_trial22.csv,E072,0,20.0,320.0,340.0,False,5.73
9,22,4,False,rug,f,20,2022-11-15 10:24:14.731452,results/221115_10.24_data_subj9_block4_trial22.csv,E032,1,440.0,260.0,700.0,True,5.73
9,23,4,False,rug,f,20,2022-11-15 10:24:14.731452,results/221115_10.24_data_subj9_block4_trial23.csv,E030,0,260.0,140.0,400.0,True,5.63
9,23,4,False,rug,f,20,2022-11-15 10:24:14.731452,results/221115_10.24_data_subj9_block4_trial23.csv,E031,1,140.0,80.0,220.0,False,5.63
9,24,4,False,rug,f,20,2022-11-15 10:24:14.731452,results/221115_10.24_data_subj9_block4_trial24.csv,E071,0,20.0,260.0,280.0,True,5.898
9,24,4,False,rug,f,20,2022-11-15 10:24:14.731452,results/221115_10.24_data_subj9_block4_trial24.csv,E069,1,20.0,140.0,160.0,False,5.898
