subj,trial,block,practice,condition,sex,age,date,data_file,texture_id,stim_order,diameter,opening,spacing,response,rt
21,0,0,True,soft,f,22,2022-11-23 13:37:37.517963,results/221123_13.37_data_subj21_block0_trial0_PRACTICE.csv,E015,0,560.0,140.0,700.0,False,27.64
21,0,0,True,soft,f,22,2022-11-23 13:37:37.517963,results/221123_13.37_data_subj21_block0_trial0_PRACTICE.csv,E079(S41),1,50.0,110.0,160.0,True,27.64
21,1,0,True,soft,f,22,2022-11-23 13:37:37.517963,results/221123_13.37_data_subj21_block0_trial1_PRACTICE.csv,E009,0,560.0,80.0,640.0,False,10.133
21,1,0,True,soft,f,22,2022-11-23 13:37:37.517963,results/221123_13.37_data_subj21_block0_trial1_PRACTICE.csv,E045,1,260.0,260.0,520.0,True,10.133
21,2,0,True,soft,f,22,2022-11-23 13:37:37.517963,results/221123_13.37_data_subj21_block0_trial2_PRACTICE.csv,E043,0,320.0,260.0,580.0,False,11.658
21,2,0,True,soft,f,22,2022-11-23 13:37:37.517963,results/221123_13.37_data_subj21_block0_trial2_PRACTICE.csv,E058,1,50.0,80.0,130.0,True,11.658
21,3,0,True,soft,f,22,2022-11-23 13:37:37.517963,results/221123_13.37_data_subj21_block0_trial3_PRACTICE.csv,E016,0,500.0,140.0,640.0,False,10.512
21,3,0,True,soft,f,22,2022-11-23 13:37:37.517963,results/221123_13.37_data_subj21_block0_trial3_PRACTICE.csv,E081(S03),1,107.0,210.0,317.0,True,10.512
21,4,0,True,soft,f,22,2022-11-23 13:37:37.517963,results/221123_13.37_data_subj21_block0_trial4_PRACTICE.csv,E078(S45),0,80.0,110.0,190.0,True,1.167
21,4,0,True,soft,f,22,2022-11-23 13:37:37.517963,results/221123_13.37_data_subj21_block0_trial4_PRACTICE.csv,E050,1,320.0,320.0,640.0,False,1.167
21,0,1,False,soft,f,22,2022-11-23 13:37:37.517963,results/221123_13.37_data_subj21_block1_trial0.csv,E063,0,80.0,200.0,280.0,False,11.081
21,0,1,False,soft,f,22,2022-11-23 13:37:37.517963,results/221123_13.37_data_subj21_block1_trial0.csv,E077(S32),1,110.0,110.0,220.0,True,11.081
21,1,1,False,soft,f,22,2022-11-23 13:37:37.517963,results/221123_13.37_data_subj21_block1_trial1.csv,E037,0,200.0,140.0,340.0,False,9.928
21,1,1,False,soft,f,22,2022-11-23 13:37:37.517963,results/221123_13.37_data_subj21_block1_trial1.csv,E073(S18),1,797.0,116.0,913.0,True,9.928
21,2,1,False,soft,f,22,2022-11-23 13:37:37.517963,results/221123_13.37_data_subj21_block1_trial2.csv,E081(S03),0,107.0,210.0,317.0,False,10.012
21,2,1,False,soft,f,22,2022-11-23 13:37:37.517963,results/221123_13.37_data_subj21_block1_trial2.csv,E006,1,260.0,20.0,280.0,True,10.012
21,3,1,False,soft,f,22,2022-11-23 13:37:37.517963,results/221123_13.37_data_subj21_block1_trial3.csv,E074(S39),0,110.0,50.0,160.0,True,9.179
21,3,1,False,soft,f,22,2022-11-23 13:37:37.517963,results/221123_13.37_data_subj21_block1_trial3.csv,E059,1,80.0,140.0,220.0,False,9.179
21,4,1,False,soft,f,22,2022-11-23 13:37:37.517963,results/221123_13.37_data_subj21_block1_trial4.csv,E053,0,110.0,140.0,250.0,False,9.298
21,4,1,False,soft,f,22,2022-11-23 13:37:37.517963,results/221123_13.37_data_subj21_block1_trial4.csv,E017,1,170.0,50.0,220.0,True,9.298
21,5,1,False,soft,f,22,2022-11-23 13:37:37.517963,results/221123_13.37_data_subj21_block1_trial5.csv,E049,0,80.0,80.0,160.0,False,11.347
21,5,1,False,soft,f,22,2022-11-23 13:37:37.517963,results/221123_13.37_data_subj21_block1_trial5.csv,E012,1,380.0,80.0,460.0,True,11.347
21,6,1,False,soft,f,22,2022-11-23 13:37:37.517963,results/221123_13.37_data_subj21_block1_trial6.csv,E039,0,440.0,320.0,760.0,True,9.53
21,6,1,False,soft,f,22,2022-11-23 13:37:37.517963,results/221123_13.37_data_subj21_block1_trial6.csv,E067,1,80.0,320.0,400.0,False,9.53
21,7,1,False,soft,f,22,2022-11-23 13:37:37.517963,results/221123_13.37_data_subj21_block1_trial7.csv,E007,0,200.0,20.0,220.0,True,8.764
21,7,1,False,soft,f,22,2022-11-23 13:37:37.517963,results/221123_13.37_data_subj21_block1_trial7.csv,E063,1,80.0,200.0,280.0,False,8.764
21,8,1,False,soft,f,22,2022-11-23 13:37:37.517963,results/221123_13.37_data_subj21_block1_trial8.csv,E040,0,260.0,200.0,460.0,False,9.913
21,8,1,False,soft,f,22,2022-11-23 13:37:37.517963,results/221123_13.37_data_subj21_block1_trial8.csv,E001,1,560.0,20.0,580.0,True,9.913
21,9,1,False,soft,f,22,2022-11-23 13:37:37.517963,results/221123_13.37_data_subj21_block1_trial9.csv,E024,0,500.0,200.0,700.0,False,8.362
21,9,1,False,soft,f,22,2022-11-23 13:37:37.517963,results/221123_13.37_data_subj21_block1_trial9.csv,E013,1,80.0,20.0,100.0,True,8.362
21,10,1,False,soft,f,22,2022-11-23 13:37:37.517963,results/221123_13.37_data_subj21_block1_trial10.csv,E082(S40),0,22.0,113.0,135.0,False,11.93
21,10,1,False,soft,f,22,2022-11-23 13:37:37.517963,results/221123_13.37_data_subj21_block1_trial10.csv,E054,1,200.0,260.0,460.0,True,11.93
21,11,1,False,soft,f,22,2022-11-23 13:37:37.517963,results/221123_13.37_data_subj21_block1_trial11.csv,E073(S18),0,797.0,116.0,913.0,True,9.312
21,11,1,False,soft,f,22,2022-11-23 13:37:37.517963,results/221123_13.37_data_subj21_block1_trial11.csv,E081(S03),1,107.0,210.0,317.0,False,9.312
21,12,1,False,soft,f,22,2022-11-23 13:37:37.517963,results/221123_13.37_data_subj21_block1_trial12.csv,E084(S12),0,206.0,113.0,319.0,True,8.514
21,12,1,False,soft,f,22,2022-11-23 13:37:37.517963,results/221123_13.37_data_subj21_block1_trial12.csv,E050,1,320.0,320.0,640.0,False,8.514
21,13,1,False,soft,f,22,2022-11-23 13:37:37.517963,results/221123_13.37_data_subj21_block1_trial13.csv,E024,0,500.0,200.0,700.0,False,9.363
21,13,1,False,soft,f,22,2022-11-23 13:37:37.517963,results/221123_13.37_data_subj21_block1_trial13.csv,E023,1,200.0,80.0,280.0,True,9.363
21,14,1,False,soft,f,22,2022-11-23 13:37:37.517963,results/221123_13.37_data_subj21_block1_trial14.csv,E063,0,80.0,200.0,280.0,False,9.199
21,14,1,False,soft,f,22,2022-11-23 13:37:37.517963,results/221123_13.37_data_subj21_block1_trial14.csv,E052,1,260.0,320.0,580.0,True,9.199
21,15,1,False,soft,f,22,2022-11-23 13:37:37.517963,results/221123_13.37_data_subj21_block1_trial15.csv,E005,0,380.0,20.0,400.0,True,9.412
21,15,1,False,soft,f,22,2022-11-23 13:37:37.517963,results/221123_13.37_data_subj21_block1_trial15.csv,E078(S45),1,80.0,110.0,190.0,False,9.412
21,16,1,False,soft,f,22,2022-11-23 13:37:37.517963,results/221123_13.37_data_subj21_block1_trial16.csv,E016,0,500.0,140.0,640.0,True,9.729
21,16,1,False,soft,f,22,2022-11-23 13:37:37.517963,results/221123_13.37_data_subj21_block1_trial16.csv,E028,1,500.0,260.0,760.0,False,9.729
21,17,1,False,soft,f,22,2022-11-23 13:37:37.517963,results/221123_13.37_data_subj21_block1_trial17.csv,E013,0,80.0,20.0,100.0,True,8.981
21,17,1,False,soft,f,22,2022-11-23 13:37:37.517963,results/221123_13.37_data_subj21_block1_trial17.csv,E084(S12),1,206.0,113.0,319.0,False,8.981
21,18,1,False,soft,f,22,2022-11-23 13:37:37.517963,results/221123_13.37_data_subj21_block1_trial18.csv,E017,0,170.0,50.0,220.0,True,8.33
21,18,1,False,soft,f,22,2022-11-23 13:37:37.517963,results/221123_13.37_data_subj21_block1_trial18.csv,E039,1,440.0,320.0,760.0,False,8.33
21,19,1,False,soft,f,22,2022-11-23 13:37:37.517963,results/221123_13.37_data_subj21_block1_trial19.csv,E079(S41),0,50.0,110.0,160.0,False,11.216
21,19,1,False,soft,f,22,2022-11-23 13:37:37.517963,results/221123_13.37_data_subj21_block1_trial19.csv,E024,1,500.0,200.0,700.0,True,11.216
21,20,1,False,soft,f,22,2022-11-23 13:37:37.517963,results/221123_13.37_data_subj21_block1_trial20.csv,E019,0,440.0,140.0,580.0,False,11.082
21,20,1,False,soft,f,22,2022-11-23 13:37:37.517963,results/221123_13.37_data_subj21_block1_trial20.csv,E044,1,170.0,140.0,310.0,True,11.082
21,21,1,False,soft,f,22,2022-11-23 13:37:37.517963,results/221123_13.37_data_subj21_block1_trial21.csv,E012,0,380.0,80.0,460.0,True,9.497
21,21,1,False,soft,f,22,2022-11-23 13:37:37.517963,results/221123_13.37_data_subj21_block1_trial21.csv,E054,1,200.0,260.0,460.0,False,9.497
21,22,1,False,soft,f,22,2022-11-23 13:37:37.517963,results/221123_13.37_data_subj21_block1_trial22.csv,E071,0,20.0,260.0,280.0,False,9.348
21,22,1,False,soft,f,22,2022-11-23 13:37:37.517963,results/221123_13.37_data_subj21_block1_trial22.csv,E027,1,170.0,80.0,250.0,True,9.348
21,23,1,False,soft,f,22,2022-11-23 13:37:37.517963,results/221123_13.37_data_subj21_block1_trial23.csv,E056,0,110.0,170.0,280.0,True,8.779
21,23,1,False,soft,f,22,2022-11-23 13:37:37.517963,results/221123_13.37_data_subj21_block1_trial23.csv,E036,1,380.0,260.0,640.0,False,8.779
21,24,1,False,soft,f,22,2022-11-23 13:37:37.517963,results/221123_13.37_data_subj21_block1_trial24.csv,E056,0,110.0,170.0,280.0,False,10.08
21,24,1,False,soft,f,22,2022-11-23 13:37:37.517963,results/221123_13.37_data_subj21_block1_trial24.csv,E006,1,260.0,20.0,280.0,True,10.08
21,0,2,False,soft,f,22,2022-11-23 13:37:37.517963,results/221123_13.37_data_subj21_block2_trial0.csv,E057,0,200.0,320.0,520.0,False,10.396
21,0,2,False,soft,f,22,2022-11-23 13:37:37.517963,results/221123_13.37_data_subj21_block2_trial0.csv,E071,1,20.0,260.0,280.0,True,10.396
21,1,2,False,soft,f,22,2022-11-23 13:37:37.517963,results/221123_13.37_data_subj21_block2_trial1.csv,E082(S40),0,22.0,113.0,135.0,False,9.311
21,1,2,False,soft,f,22,2022-11-23 13:37:37.517963,results/221123_13.37_data_subj21_block2_trial1.csv,E016,1,500.0,140.0,640.0,True,9.311
21,2,2,False,soft,f,22,2022-11-23 13:37:37.517963,results/221123_13.37_data_subj21_block2_trial2.csv,E017,0,170.0,50.0,220.0,True,9.481
21,2,2,False,soft,f,22,2022-11-23 13:37:37.517963,results/221123_13.37_data_subj21_block2_trial2.csv,E072,1,20.0,320.0,340.0,False,9.481
21,3,2,False,soft,f,22,2022-11-23 13:37:37.517963,results/221123_13.37_data_subj21_block2_trial3.csv,E048,0,170.0,170.0,340.0,False,9.83
21,3,2,False,soft,f,22,2022-11-23 13:37:37.517963,results/221123_13.37_data_subj21_block2_trial3.csv,E033,1,80.0,50.0,130.0,True,9.83
21,4,2,False,soft,f,22,2022-11-23 13:37:37.517963,results/221123_13.37_data_subj21_block2_trial4.csv,E034,0,320.0,200.0,520.0,False,10.061
21,4,2,False,soft,f,22,2022-11-23 13:37:37.517963,results/221123_13.37_data_subj21_block2_trial4.csv,E001,1,560.0,20.0,580.0,True,10.061
21,5,2,False,soft,f,22,2022-11-23 13:37:37.517963,results/221123_13.37_data_subj21_block2_trial5.csv,E081(S03),0,107.0,210.0,317.0,False,9.212
21,5,2,False,soft,f,22,2022-11-23 13:37:37.517963,results/221123_13.37_data_subj21_block2_trial5.csv,E042,1,380.0,320.0,700.0,True,9.212
21,6,2,False,soft,f,22,2022-11-23 13:37:37.517963,results/221123_13.37_data_subj21_block2_trial6.csv,E064,0,50.0,140.0,190.0,True,10.83
21,6,2,False,soft,f,22,2022-11-23 13:37:37.517963,results/221123_13.37_data_subj21_block2_trial6.csv,E064,1,50.0,140.0,190.0,False,10.83
21,7,2,False,soft,f,22,2022-11-23 13:37:37.517963,results/221123_13.37_data_subj21_block2_trial7.csv,E033,0,80.0,50.0,130.0,True,9.163
21,7,2,False,soft,f,22,2022-11-23 13:37:37.517963,results/221123_13.37_data_subj21_block2_trial7.csv,E054,1,200.0,260.0,460.0,False,9.163
21,8,2,False,soft,f,22,2022-11-23 13:37:37.517963,results/221123_13.37_data_subj21_block2_trial8.csv,E016,0,500.0,140.0,640.0,True,8.948
21,8,2,False,soft,f,22,2022-11-23 13:37:37.517963,results/221123_13.37_data_subj21_block2_trial8.csv,E075(S42),1,20.0,20.0,40.0,False,8.948
21,9,2,False,soft,f,22,2022-11-23 13:37:37.517963,results/221123_13.37_data_subj21_block2_trial9.csv,E035,0,170.0,110.0,280.0,True,9.447
21,9,2,False,soft,f,22,2022-11-23 13:37:37.517963,results/221123_13.37_data_subj21_block2_trial9.csv,E026,1,440.0,200.0,640.0,False,9.447
21,10,2,False,soft,f,22,2022-11-23 13:37:37.517963,results/221123_13.37_data_subj21_block2_trial10.csv,E060,0,140.0,260.0,400.0,False,10.231
21,10,2,False,soft,f,22,2022-11-23 13:37:37.517963,results/221123_13.37_data_subj21_block2_trial10.csv,E050,1,320.0,320.0,640.0,True,10.231
21,11,2,False,soft,f,22,2022-11-23 13:37:37.517963,results/221123_13.37_data_subj21_block2_trial11.csv,E078(S45),0,80.0,110.0,190.0,False,9.61
21,11,2,False,soft,f,22,2022-11-23 13:37:37.517963,results/221123_13.37_data_subj21_block2_trial11.csv,E033,1,80.0,50.0,130.0,True,9.61
21,12,2,False,soft,f,22,2022-11-23 13:37:37.517963,results/221123_13.37_data_subj21_block2_trial12.csv,E053,0,110.0,140.0,250.0,True,8.782
21,12,2,False,soft,f,22,2022-11-23 13:37:37.517963,results/221123_13.37_data_subj21_block2_trial12.csv,E044,1,170.0,140.0,310.0,False,8.782
21,13,2,False,soft,f,22,2022-11-23 13:37:37.517963,results/221123_13.37_data_subj21_block2_trial13.csv,E023,0,200.0,80.0,280.0,True,8.331
21,13,2,False,soft,f,22,2022-11-23 13:37:37.517963,results/221123_13.37_data_subj21_block2_trial13.csv,E069,1,20.0,140.0,160.0,False,8.331
21,14,2,False,soft,f,22,2022-11-23 13:37:37.517963,results/221123_13.37_data_subj21_block2_trial14.csv,E039,0,440.0,320.0,760.0,False,15.379
21,14,2,False,soft,f,22,2022-11-23 13:37:37.517963,results/221123_13.37_data_subj21_block2_trial14.csv,E079(S41),1,50.0,110.0,160.0,True,15.379
21,15,2,False,soft,f,22,2022-11-23 13:37:37.517963,results/221123_13.37_data_subj21_block2_trial15.csv,E004,0,320.0,20.0,340.0,True,8.645
21,15,2,False,soft,f,22,2022-11-23 13:37:37.517963,results/221123_13.37_data_subj21_block2_trial15.csv,E003,1,440.0,20.0,460.0,False,8.645
21,16,2,False,soft,f,22,2022-11-23 13:37:37.517963,results/221123_13.37_data_subj21_block2_trial16.csv,E061,0,80.0,170.0,250.0,False,8.579
21,16,2,False,soft,f,22,2022-11-23 13:37:37.517963,results/221123_13.37_data_subj21_block2_trial16.csv,E011,1,440.0,80.0,520.0,True,8.579
21,17,2,False,soft,f,22,2022-11-23 13:37:37.517963,results/221123_13.37_data_subj21_block2_trial17.csv,E067,0,80.0,320.0,400.0,False,8.48
21,17,2,False,soft,f,22,2022-11-23 13:37:37.517963,results/221123_13.37_data_subj21_block2_trial17.csv,E012,1,380.0,80.0,460.0,True,8.48
21,18,2,False,soft,f,22,2022-11-23 13:37:37.517963,results/221123_13.37_data_subj21_block2_trial18.csv,E050,0,320.0,320.0,640.0,False,8.228
21,18,2,False,soft,f,22,2022-11-23 13:37:37.517963,results/221123_13.37_data_subj21_block2_trial18.csv,E024,1,500.0,200.0,700.0,True,8.228
21,19,2,False,soft,f,22,2022-11-23 13:37:37.517963,results/221123_13.37_data_subj21_block2_trial19.csv,E079(S41),0,50.0,110.0,160.0,False,8.148
21,19,2,False,soft,f,22,2022-11-23 13:37:37.517963,results/221123_13.37_data_subj21_block2_trial19.csv,E031,1,140.0,80.0,220.0,True,8.148
21,20,2,False,soft,f,22,2022-11-23 13:37:37.517963,results/221123_13.37_data_subj21_block2_trial20.csv,E013,0,80.0,20.0,100.0,False,8.315
21,20,2,False,soft,f,22,2022-11-23 13:37:37.517963,results/221123_13.37_data_subj21_block2_trial20.csv,E015,1,560.0,140.0,700.0,True,8.315
21,21,2,False,soft,f,22,2022-11-23 13:37:37.517963,results/221123_13.37_data_subj21_block2_trial21.csv,E061,0,80.0,170.0,250.0,False,8.996
21,21,2,False,soft,f,22,2022-11-23 13:37:37.517963,results/221123_13.37_data_subj21_block2_trial21.csv,E006,1,260.0,20.0,280.0,True,8.996
21,22,2,False,soft,f,22,2022-11-23 13:37:37.517963,results/221123_13.37_data_subj21_block2_trial22.csv,E046,0,200.0,200.0,400.0,False,8.899
21,22,2,False,soft,f,22,2022-11-23 13:37:37.517963,results/221123_13.37_data_subj21_block2_trial22.csv,E021,1,560.0,200.0,760.0,True,8.899
21,23,2,False,soft,f,22,2022-11-23 13:37:37.517963,results/221123_13.37_data_subj21_block2_trial23.csv,E036,0,380.0,260.0,640.0,False,8.829
21,23,2,False,soft,f,22,2022-11-23 13:37:37.517963,results/221123_13.37_data_subj21_block2_trial23.csv,E020,1,140.0,50.0,190.0,True,8.829
21,24,2,False,soft,f,22,2022-11-23 13:37:37.517963,results/221123_13.37_data_subj21_block2_trial24.csv,E053,0,110.0,140.0,250.0,False,9.363
21,24,2,False,soft,f,22,2022-11-23 13:37:37.517963,results/221123_13.37_data_subj21_block2_trial24.csv,E031,1,140.0,80.0,220.0,True,9.363
21,0,3,False,soft,f,22,2022-11-23 13:37:37.517963,results/221123_13.37_data_subj21_block3_trial0.csv,E012,0,380.0,80.0,460.0,True,8.429
21,0,3,False,soft,f,22,2022-11-23 13:37:37.517963,results/221123_13.37_data_subj21_block3_trial0.csv,E017,1,170.0,50.0,220.0,False,8.429
21,1,3,False,soft,f,22,2022-11-23 13:37:37.517963,results/221123_13.37_data_subj21_block3_trial1.csv,E072,0,20.0,320.0,340.0,True,10.079
21,1,3,False,soft,f,22,2022-11-23 13:37:37.517963,results/221123_13.37_data_subj21_block3_trial1.csv,E063,1,80.0,200.0,280.0,False,10.079
21,2,3,False,soft,f,22,2022-11-23 13:37:37.517963,results/221123_13.37_data_subj21_block3_trial2.csv,E055,0,140.0,200.0,340.0,False,9.865
21,2,3,False,soft,f,22,2022-11-23 13:37:37.517963,results/221123_13.37_data_subj21_block3_trial2.csv,E044,1,170.0,140.0,310.0,True,9.865
21,3,3,False,soft,f,22,2022-11-23 13:37:37.517963,results/221123_13.37_data_subj21_block3_trial3.csv,E022,0,380.0,140.0,520.0,False,9.799
21,3,3,False,soft,f,22,2022-11-23 13:37:37.517963,results/221123_13.37_data_subj21_block3_trial3.csv,E018,1,260.0,80.0,340.0,True,9.799
21,4,3,False,soft,f,22,2022-11-23 13:37:37.517963,results/221123_13.37_data_subj21_block3_trial4.csv,E018,0,260.0,80.0,340.0,True,10.515
21,4,3,False,soft,f,22,2022-11-23 13:37:37.517963,results/221123_13.37_data_subj21_block3_trial4.csv,E015,1,560.0,140.0,700.0,False,10.515
21,5,3,False,soft,f,22,2022-11-23 13:37:37.517963,results/221123_13.37_data_subj21_block3_trial5.csv,E054,0,200.0,260.0,460.0,False,8.847
21,5,3,False,soft,f,22,2022-11-23 13:37:37.517963,results/221123_13.37_data_subj21_block3_trial5.csv,E002,1,500.0,20.0,520.0,True,8.847
21,6,3,False,soft,f,22,2022-11-23 13:37:37.517963,results/221123_13.37_data_subj21_block3_trial6.csv,E084(S12),0,206.0,113.0,319.0,True,9.682
21,6,3,False,soft,f,22,2022-11-23 13:37:37.517963,results/221123_13.37_data_subj21_block3_trial6.csv,E026,1,440.0,200.0,640.0,False,9.682
21,7,3,False,soft,f,22,2022-11-23 13:37:37.517963,results/221123_13.37_data_subj21_block3_trial7.csv,E045,0,260.0,260.0,520.0,False,8.381
21,7,3,False,soft,f,22,2022-11-23 13:37:37.517963,results/221123_13.37_data_subj21_block3_trial7.csv,E001,1,560.0,20.0,580.0,True,8.381
21,8,3,False,soft,f,22,2022-11-23 13:37:37.517963,results/221123_13.37_data_subj21_block3_trial8.csv,E065,0,80.0,260.0,340.0,False,8.68
21,8,3,False,soft,f,22,2022-11-23 13:37:37.517963,results/221123_13.37_data_subj21_block3_trial8.csv,E002,1,500.0,20.0,520.0,True,8.68
21,9,3,False,soft,f,22,2022-11-23 13:37:37.517963,results/221123_13.37_data_subj21_block3_trial9.csv,E026,0,440.0,200.0,640.0,True,7.846
21,9,3,False,soft,f,22,2022-11-23 13:37:37.517963,results/221123_13.37_data_subj21_block3_trial9.csv,E056,1,110.0,170.0,280.0,False,7.846
21,10,3,False,soft,f,22,2022-11-23 13:37:37.517963,results/221123_13.37_data_subj21_block3_trial10.csv,E077(S32),0,110.0,110.0,220.0,False,8.63
21,10,3,False,soft,f,22,2022-11-23 13:37:37.517963,results/221123_13.37_data_subj21_block3_trial10.csv,E012,1,380.0,80.0,460.0,True,8.63
21,11,3,False,soft,f,22,2022-11-23 13:37:37.517963,results/221123_13.37_data_subj21_block3_trial11.csv,E079(S41),0,50.0,110.0,160.0,False,10.131
21,11,3,False,soft,f,22,2022-11-23 13:37:37.517963,results/221123_13.37_data_subj21_block3_trial11.csv,E083(S38),1,107.0,27.0,134.0,True,10.131
21,12,3,False,soft,f,22,2022-11-23 13:37:37.517963,results/221123_13.37_data_subj21_block3_trial12.csv,E053,0,110.0,140.0,250.0,False,8.164
21,12,3,False,soft,f,22,2022-11-23 13:37:37.517963,results/221123_13.37_data_subj21_block3_trial12.csv,E072,1,20.0,320.0,340.0,True,8.164
21,13,3,False,soft,f,22,2022-11-23 13:37:37.517963,results/221123_13.37_data_subj21_block3_trial13.csv,E046,0,200.0,200.0,400.0,True,8.481
21,13,3,False,soft,f,22,2022-11-23 13:37:37.517963,results/221123_13.37_data_subj21_block3_trial13.csv,E039,1,440.0,320.0,760.0,False,8.481
21,14,3,False,soft,f,22,2022-11-23 13:37:37.517963,results/221123_13.37_data_subj21_block3_trial14.csv,E058,0,50.0,80.0,130.0,False,8.746
21,14,3,False,soft,f,22,2022-11-23 13:37:37.517963,results/221123_13.37_data_subj21_block3_trial14.csv,E084(S12),1,206.0,113.0,319.0,True,8.746
21,15,3,False,soft,f,22,2022-11-23 13:37:37.517963,results/221123_13.37_data_subj21_block3_trial15.csv,E031,0,140.0,80.0,220.0,True,8.899
21,15,3,False,soft,f,22,2022-11-23 13:37:37.517963,results/221123_13.37_data_subj21_block3_trial15.csv,E045,1,260.0,260.0,520.0,False,8.899
21,16,3,False,soft,f,22,2022-11-23 13:37:37.517963,results/221123_13.37_data_subj21_block3_trial16.csv,E021,0,560.0,200.0,760.0,False,9.631
21,16,3,False,soft,f,22,2022-11-23 13:37:37.517963,results/221123_13.37_data_subj21_block3_trial16.csv,E016,1,500.0,140.0,640.0,True,9.631
21,17,3,False,soft,f,22,2022-11-23 13:37:37.517963,results/221123_13.37_data_subj21_block3_trial17.csv,E009,0,560.0,80.0,640.0,False,11.979
21,17,3,False,soft,f,22,2022-11-23 13:37:37.517963,results/221123_13.37_data_subj21_block3_trial17.csv,E009,1,560.0,80.0,640.0,True,11.979
21,18,3,False,soft,f,22,2022-11-23 13:37:37.517963,results/221123_13.37_data_subj21_block3_trial18.csv,E082(S40),0,22.0,113.0,135.0,True,8.725
21,18,3,False,soft,f,22,2022-11-23 13:37:37.517963,results/221123_13.37_data_subj21_block3_trial18.csv,E056,1,110.0,170.0,280.0,False,8.725
21,19,3,False,soft,f,22,2022-11-23 13:37:37.517963,results/221123_13.37_data_subj21_block3_trial19.csv,E063,0,80.0,200.0,280.0,True,9.931
21,19,3,False,soft,f,22,2022-11-23 13:37:37.517963,results/221123_13.37_data_subj21_block3_trial19.csv,E062,1,140.0,320.0,460.0,False,9.931
21,20,3,False,soft,f,22,2022-11-23 13:37:37.517963,results/221123_13.37_data_subj21_block3_trial20.csv,E031,0,140.0,80.0,220.0,False,9.28
21,20,3,False,soft,f,22,2022-11-23 13:37:37.517963,results/221123_13.37_data_subj21_block3_trial20.csv,E019,1,440.0,140.0,580.0,True,9.28
21,21,3,False,soft,f,22,2022-11-23 13:37:37.517963,results/221123_13.37_data_subj21_block3_trial21.csv,E070,0,20.0,200.0,220.0,False,8.746
21,21,3,False,soft,f,22,2022-11-23 13:37:37.517963,results/221123_13.37_data_subj21_block3_trial21.csv,E002,1,500.0,20.0,520.0,True,8.746
21,22,3,False,soft,f,22,2022-11-23 13:37:37.517963,results/221123_13.37_data_subj21_block3_trial22.csv,E044,0,170.0,140.0,310.0,True,9.431
21,22,3,False,soft,f,22,2022-11-23 13:37:37.517963,results/221123_13.37_data_subj21_block3_trial22.csv,E051,1,140.0,170.0,310.0,False,9.431
21,23,3,False,soft,f,22,2022-11-23 13:37:37.517963,results/221123_13.37_data_subj21_block3_trial23.csv,E035,0,170.0,110.0,280.0,True,9.01
21,23,3,False,soft,f,22,2022-11-23 13:37:37.517963,results/221123_13.37_data_subj21_block3_trial23.csv,E023,1,200.0,80.0,280.0,False,9.01
21,24,3,False,soft,f,22,2022-11-23 13:37:37.517963,results/221123_13.37_data_subj21_block3_trial24.csv,E031,0,140.0,80.0,220.0,False,8.598
21,24,3,False,soft,f,22,2022-11-23 13:37:37.517963,results/221123_13.37_data_subj21_block3_trial24.csv,E012,1,380.0,80.0,460.0,True,8.598
21,0,4,False,soft,f,22,2022-11-23 13:37:37.517963,results/221123_13.37_data_subj21_block4_trial0.csv,E012,0,380.0,80.0,460.0,True,11.364
21,0,4,False,soft,f,22,2022-11-23 13:37:37.517963,results/221123_13.37_data_subj21_block4_trial0.csv,E017,1,170.0,50.0,220.0,False,11.364
21,1,4,False,soft,f,22,2022-11-23 13:37:37.517963,results/221123_13.37_data_subj21_block4_trial1.csv,E072,0,20.0,320.0,340.0,True,8.278
21,1,4,False,soft,f,22,2022-11-23 13:37:37.517963,results/221123_13.37_data_subj21_block4_trial1.csv,E063,1,80.0,200.0,280.0,False,8.278
21,2,4,False,soft,f,22,2022-11-23 13:37:37.517963,results/221123_13.37_data_subj21_block4_trial2.csv,E055,0,140.0,200.0,340.0,False,9.564
21,2,4,False,soft,f,22,2022-11-23 13:37:37.517963,results/221123_13.37_data_subj21_block4_trial2.csv,E044,1,170.0,140.0,310.0,True,9.564
21,3,4,False,soft,f,22,2022-11-23 13:37:37.517963,results/221123_13.37_data_subj21_block4_trial3.csv,E022,0,380.0,140.0,520.0,True,9.138
21,3,4,False,soft,f,22,2022-11-23 13:37:37.517963,results/221123_13.37_data_subj21_block4_trial3.csv,E018,1,260.0,80.0,340.0,False,9.138
21,4,4,False,soft,f,22,2022-11-23 13:37:37.517963,results/221123_13.37_data_subj21_block4_trial4.csv,E018,0,260.0,80.0,340.0,True,8.348
21,4,4,False,soft,f,22,2022-11-23 13:37:37.517963,results/221123_13.37_data_subj21_block4_trial4.csv,E015,1,560.0,140.0,700.0,False,8.348
21,5,4,False,soft,f,22,2022-11-23 13:37:37.517963,results/221123_13.37_data_subj21_block4_trial5.csv,E054,0,200.0,260.0,460.0,False,9.046
21,5,4,False,soft,f,22,2022-11-23 13:37:37.517963,results/221123_13.37_data_subj21_block4_trial5.csv,E002,1,500.0,20.0,520.0,True,9.046
21,6,4,False,soft,f,22,2022-11-23 13:37:37.517963,results/221123_13.37_data_subj21_block4_trial6.csv,E084(S12),0,206.0,113.0,319.0,True,10.23
21,6,4,False,soft,f,22,2022-11-23 13:37:37.517963,results/221123_13.37_data_subj21_block4_trial6.csv,E026,1,440.0,200.0,640.0,False,10.23
21,7,4,False,soft,f,22,2022-11-23 13:37:37.517963,results/221123_13.37_data_subj21_block4_trial7.csv,E045,0,260.0,260.0,520.0,False,8.747
21,7,4,False,soft,f,22,2022-11-23 13:37:37.517963,results/221123_13.37_data_subj21_block4_trial7.csv,E001,1,560.0,20.0,580.0,True,8.747
21,8,4,False,soft,f,22,2022-11-23 13:37:37.517963,results/221123_13.37_data_subj21_block4_trial8.csv,E065,0,80.0,260.0,340.0,False,9.181
21,8,4,False,soft,f,22,2022-11-23 13:37:37.517963,results/221123_13.37_data_subj21_block4_trial8.csv,E002,1,500.0,20.0,520.0,True,9.181
21,9,4,False,soft,f,22,2022-11-23 13:37:37.517963,results/221123_13.37_data_subj21_block4_trial9.csv,E026,0,440.0,200.0,640.0,True,8.494
21,9,4,False,soft,f,22,2022-11-23 13:37:37.517963,results/221123_13.37_data_subj21_block4_trial9.csv,E056,1,110.0,170.0,280.0,False,8.494
21,10,4,False,soft,f,22,2022-11-23 13:37:37.517963,results/221123_13.37_data_subj21_block4_trial10.csv,E077(S32),0,110.0,110.0,220.0,False,8.831
21,10,4,False,soft,f,22,2022-11-23 13:37:37.517963,results/221123_13.37_data_subj21_block4_trial10.csv,E012,1,380.0,80.0,460.0,True,8.831
21,11,4,False,soft,f,22,2022-11-23 13:37:37.517963,results/221123_13.37_data_subj21_block4_trial11.csv,E079(S41),0,50.0,110.0,160.0,False,8.763
21,11,4,False,soft,f,22,2022-11-23 13:37:37.517963,results/221123_13.37_data_subj21_block4_trial11.csv,E083(S38),1,107.0,27.0,134.0,True,8.763
21,12,4,False,soft,f,22,2022-11-23 13:37:37.517963,results/221123_13.37_data_subj21_block4_trial12.csv,E053,0,110.0,140.0,250.0,False,9.678
21,12,4,False,soft,f,22,2022-11-23 13:37:37.517963,results/221123_13.37_data_subj21_block4_trial12.csv,E072,1,20.0,320.0,340.0,True,9.678
21,13,4,False,soft,f,22,2022-11-23 13:37:37.517963,results/221123_13.37_data_subj21_block4_trial13.csv,E046,0,200.0,200.0,400.0,True,8.531
21,13,4,False,soft,f,22,2022-11-23 13:37:37.517963,results/221123_13.37_data_subj21_block4_trial13.csv,E039,1,440.0,320.0,760.0,False,8.531
21,14,4,False,soft,f,22,2022-11-23 13:37:37.517963,results/221123_13.37_data_subj21_block4_trial14.csv,E058,0,50.0,80.0,130.0,True,9.297
21,14,4,False,soft,f,22,2022-11-23 13:37:37.517963,results/221123_13.37_data_subj21_block4_trial14.csv,E084(S12),1,206.0,113.0,319.0,False,9.297
21,15,4,False,soft,f,22,2022-11-23 13:37:37.517963,results/221123_13.37_data_subj21_block4_trial15.csv,E031,0,140.0,80.0,220.0,True,9.564
21,15,4,False,soft,f,22,2022-11-23 13:37:37.517963,results/221123_13.37_data_subj21_block4_trial15.csv,E045,1,260.0,260.0,520.0,False,9.564
21,16,4,False,soft,f,22,2022-11-23 13:37:37.517963,results/221123_13.37_data_subj21_block4_trial16.csv,E021,0,560.0,200.0,760.0,True,9.077
21,16,4,False,soft,f,22,2022-11-23 13:37:37.517963,results/221123_13.37_data_subj21_block4_trial16.csv,E016,1,500.0,140.0,640.0,False,9.077
21,17,4,False,soft,f,22,2022-11-23 13:37:37.517963,results/221123_13.37_data_subj21_block4_trial17.csv,E009,0,560.0,80.0,640.0,False,10.413
21,17,4,False,soft,f,22,2022-11-23 13:37:37.517963,results/221123_13.37_data_subj21_block4_trial17.csv,E009,1,560.0,80.0,640.0,True,10.413
21,18,4,False,soft,f,22,2022-11-23 13:37:37.517963,results/221123_13.37_data_subj21_block4_trial18.csv,E082(S40),0,22.0,113.0,135.0,True,8.667
21,18,4,False,soft,f,22,2022-11-23 13:37:37.517963,results/221123_13.37_data_subj21_block4_trial18.csv,E056,1,110.0,170.0,280.0,False,8.667
21,19,4,False,soft,f,22,2022-11-23 13:37:37.517963,results/221123_13.37_data_subj21_block4_trial19.csv,E063,0,80.0,200.0,280.0,True,9.675
21,19,4,False,soft,f,22,2022-11-23 13:37:37.517963,results/221123_13.37_data_subj21_block4_trial19.csv,E062,1,140.0,320.0,460.0,False,9.675
21,20,4,False,soft,f,22,2022-11-23 13:37:37.517963,results/221123_13.37_data_subj21_block4_trial20.csv,E031,0,140.0,80.0,220.0,True,8.83
21,20,4,False,soft,f,22,2022-11-23 13:37:37.517963,results/221123_13.37_data_subj21_block4_trial20.csv,E019,1,440.0,140.0,580.0,False,8.83
21,21,4,False,soft,f,22,2022-11-23 13:37:37.517963,results/221123_13.37_data_subj21_block4_trial21.csv,E070,0,20.0,200.0,220.0,False,8.713
21,21,4,False,soft,f,22,2022-11-23 13:37:37.517963,results/221123_13.37_data_subj21_block4_trial21.csv,E002,1,500.0,20.0,520.0,True,8.713
21,22,4,False,soft,f,22,2022-11-23 13:37:37.517963,results/221123_13.37_data_subj21_block4_trial22.csv,E044,0,170.0,140.0,310.0,True,8.28
21,22,4,False,soft,f,22,2022-11-23 13:37:37.517963,results/221123_13.37_data_subj21_block4_trial22.csv,E051,1,140.0,170.0,310.0,False,8.28
21,23,4,False,soft,f,22,2022-11-23 13:37:37.517963,results/221123_13.37_data_subj21_block4_trial23.csv,E035,0,170.0,110.0,280.0,False,8.682
21,23,4,False,soft,f,22,2022-11-23 13:37:37.517963,results/221123_13.37_data_subj21_block4_trial23.csv,E023,1,200.0,80.0,280.0,True,8.682
21,24,4,False,soft,f,22,2022-11-23 13:37:37.517963,results/221123_13.37_data_subj21_block4_trial24.csv,E031,0,140.0,80.0,220.0,True,8.748
21,24,4,False,soft,f,22,2022-11-23 13:37:37.517963,results/221123_13.37_data_subj21_block4_trial24.csv,E012,1,380.0,80.0,460.0,False,8.748
