subj,trial,block,practice,condition,sex,age,date,data_file,texture_id,stim_order,diameter,opening,spacing,response,rt
19,0,0,True,soft,m,22,2022-11-22 15:52:43.452646,results/221122_15.52_data_subj19_block0_trial0_PRACTICE.csv,E002,0,500.0,20.0,520.0,False,14.812
19,0,0,True,soft,m,22,2022-11-22 15:52:43.452646,results/221122_15.52_data_subj19_block0_trial0_PRACTICE.csv,E045,1,260.0,260.0,520.0,True,14.812
19,1,0,True,soft,m,22,2022-11-22 15:52:43.452646,results/221122_15.52_data_subj19_block0_trial1_PRACTICE.csv,E027,0,170.0,80.0,250.0,False,13.196
19,1,0,True,soft,m,22,2022-11-22 15:52:43.452646,results/221122_15.52_data_subj19_block0_trial1_PRACTICE.csv,E022,1,380.0,140.0,520.0,True,13.196
19,2,0,True,soft,m,22,2022-11-22 15:52:43.452646,results/221122_15.52_data_subj19_block0_trial2_PRACTICE.csv,E025,0,320.0,140.0,460.0,False,11.516
19,2,0,True,soft,m,22,2022-11-22 15:52:43.452646,results/221122_15.52_data_subj19_block0_trial2_PRACTICE.csv,E065,1,80.0,260.0,340.0,True,11.516
19,3,0,True,soft,m,22,2022-11-22 15:52:43.452646,results/221122_15.52_data_subj19_block0_trial3_PRACTICE.csv,E034,0,320.0,200.0,520.0,True,1.172
19,3,0,True,soft,m,22,2022-11-22 15:52:43.452646,results/221122_15.52_data_subj19_block0_trial3_PRACTICE.csv,E031,1,140.0,80.0,220.0,False,1.172
19,4,0,True,soft,m,22,2022-11-22 15:52:43.452646,results/221122_15.52_data_subj19_block0_trial4_PRACTICE.csv,E033,0,80.0,50.0,130.0,True,1.081
19,4,0,True,soft,m,22,2022-11-22 15:52:43.452646,results/221122_15.52_data_subj19_block0_trial4_PRACTICE.csv,E025,1,320.0,140.0,460.0,False,1.081
19,0,1,False,soft,m,22,2022-11-22 15:52:43.452646,results/221122_15.52_data_subj19_block1_trial0.csv,E051,0,140.0,170.0,310.0,False,13.843
19,0,1,False,soft,m,22,2022-11-22 15:52:43.452646,results/221122_15.52_data_subj19_block1_trial0.csv,E044,1,170.0,140.0,310.0,True,13.843
19,1,1,False,soft,m,22,2022-11-22 15:52:43.452646,results/221122_15.52_data_subj19_block1_trial1.csv,E055,0,140.0,200.0,340.0,False,13.411
19,1,1,False,soft,m,22,2022-11-22 15:52:43.452646,results/221122_15.52_data_subj19_block1_trial1.csv,E061,1,80.0,170.0,250.0,True,13.411
19,2,1,False,soft,m,22,2022-11-22 15:52:43.452646,results/221122_15.52_data_subj19_block1_trial2.csv,E060,0,140.0,260.0,400.0,True,12.516
19,2,1,False,soft,m,22,2022-11-22 15:52:43.452646,results/221122_15.52_data_subj19_block1_trial2.csv,E046,1,200.0,200.0,400.0,False,12.516
19,3,1,False,soft,m,22,2022-11-22 15:52:43.452646,results/221122_15.52_data_subj19_block1_trial3.csv,E034,0,320.0,200.0,520.0,False,14.112
19,3,1,False,soft,m,22,2022-11-22 15:52:43.452646,results/221122_15.52_data_subj19_block1_trial3.csv,E080(S07),1,106.0,610.0,716.0,True,14.112
19,4,1,False,soft,m,22,2022-11-22 15:52:43.452646,results/221122_15.52_data_subj19_block1_trial4.csv,E051,0,140.0,170.0,310.0,True,12.249
19,4,1,False,soft,m,22,2022-11-22 15:52:43.452646,results/221122_15.52_data_subj19_block1_trial4.csv,E039,1,440.0,320.0,760.0,False,12.249
19,5,1,False,soft,m,22,2022-11-22 15:52:43.452646,results/221122_15.52_data_subj19_block1_trial5.csv,E003,0,440.0,20.0,460.0,True,11.949
19,5,1,False,soft,m,22,2022-11-22 15:52:43.452646,results/221122_15.52_data_subj19_block1_trial5.csv,E016,1,500.0,140.0,640.0,False,11.949
19,6,1,False,soft,m,22,2022-11-22 15:52:43.452646,results/221122_15.52_data_subj19_block1_trial6.csv,E061,0,80.0,170.0,250.0,False,10.153
19,6,1,False,soft,m,22,2022-11-22 15:52:43.452646,results/221122_15.52_data_subj19_block1_trial6.csv,E075(S42),1,20.0,20.0,40.0,True,10.153
19,7,1,False,soft,m,22,2022-11-22 15:52:43.452646,results/221122_15.52_data_subj19_block1_trial7.csv,E055,0,140.0,200.0,340.0,True,11.961
19,7,1,False,soft,m,22,2022-11-22 15:52:43.452646,results/221122_15.52_data_subj19_block1_trial7.csv,E047,1,140.0,140.0,280.0,False,11.961
19,8,1,False,soft,m,22,2022-11-22 15:52:43.452646,results/221122_15.52_data_subj19_block1_trial8.csv,E047,0,140.0,140.0,280.0,True,11.547
19,8,1,False,soft,m,22,2022-11-22 15:52:43.452646,results/221122_15.52_data_subj19_block1_trial8.csv,E045,1,260.0,260.0,520.0,False,11.547
19,9,1,False,soft,m,22,2022-11-22 15:52:43.452646,results/221122_15.52_data_subj19_block1_trial9.csv,E081(S03),0,107.0,210.0,317.0,False,12.23
19,9,1,False,soft,m,22,2022-11-22 15:52:43.452646,results/221122_15.52_data_subj19_block1_trial9.csv,E019,1,440.0,140.0,580.0,True,12.23
19,10,1,False,soft,m,22,2022-11-22 15:52:43.452646,results/221122_15.52_data_subj19_block1_trial10.csv,E021,0,560.0,200.0,760.0,False,10.549
19,10,1,False,soft,m,22,2022-11-22 15:52:43.452646,results/221122_15.52_data_subj19_block1_trial10.csv,E058,1,50.0,80.0,130.0,True,10.549
19,11,1,False,soft,m,22,2022-11-22 15:52:43.452646,results/221122_15.52_data_subj19_block1_trial11.csv,E007,0,200.0,20.0,220.0,False,15.195
19,11,1,False,soft,m,22,2022-11-22 15:52:43.452646,results/221122_15.52_data_subj19_block1_trial11.csv,E070,1,20.0,200.0,220.0,True,15.195
19,12,1,False,soft,m,22,2022-11-22 15:52:43.452646,results/221122_15.52_data_subj19_block1_trial12.csv,E010,0,500.0,80.0,580.0,True,10.165
19,12,1,False,soft,m,22,2022-11-22 15:52:43.452646,results/221122_15.52_data_subj19_block1_trial12.csv,E040,1,260.0,200.0,460.0,False,10.165
19,13,1,False,soft,m,22,2022-11-22 15:52:43.452646,results/221122_15.52_data_subj19_block1_trial13.csv,E057,0,200.0,320.0,520.0,False,10.562
19,13,1,False,soft,m,22,2022-11-22 15:52:43.452646,results/221122_15.52_data_subj19_block1_trial13.csv,E047,1,140.0,140.0,280.0,True,10.562
19,14,1,False,soft,m,22,2022-11-22 15:52:43.452646,results/221122_15.52_data_subj19_block1_trial14.csv,E069,0,20.0,140.0,160.0,True,9.791
19,14,1,False,soft,m,22,2022-11-22 15:52:43.452646,results/221122_15.52_data_subj19_block1_trial14.csv,E081(S03),1,107.0,210.0,317.0,False,9.791
19,15,1,False,soft,m,22,2022-11-22 15:52:43.452646,results/221122_15.52_data_subj19_block1_trial15.csv,E006,0,260.0,20.0,280.0,False,12.014
19,15,1,False,soft,m,22,2022-11-22 15:52:43.452646,results/221122_15.52_data_subj19_block1_trial15.csv,E070,1,20.0,200.0,220.0,True,12.014
19,16,1,False,soft,m,22,2022-11-22 15:52:43.452646,results/221122_15.52_data_subj19_block1_trial16.csv,E016,0,500.0,140.0,640.0,False,10.665
19,16,1,False,soft,m,22,2022-11-22 15:52:43.452646,results/221122_15.52_data_subj19_block1_trial16.csv,E072,1,20.0,320.0,340.0,True,10.665
19,17,1,False,soft,m,22,2022-11-22 15:52:43.452646,results/221122_15.52_data_subj19_block1_trial17.csv,E027,0,170.0,80.0,250.0,True,9.83
19,17,1,False,soft,m,22,2022-11-22 15:52:43.452646,results/221122_15.52_data_subj19_block1_trial17.csv,E050,1,320.0,320.0,640.0,False,9.83
19,18,1,False,soft,m,22,2022-11-22 15:52:43.452646,results/221122_15.52_data_subj19_block1_trial18.csv,E053,0,110.0,140.0,250.0,False,10.193
19,18,1,False,soft,m,22,2022-11-22 15:52:43.452646,results/221122_15.52_data_subj19_block1_trial18.csv,E064,1,50.0,140.0,190.0,True,10.193
19,19,1,False,soft,m,22,2022-11-22 15:52:43.452646,results/221122_15.52_data_subj19_block1_trial19.csv,E044,0,170.0,140.0,310.0,False,9.501
19,19,1,False,soft,m,22,2022-11-22 15:52:43.452646,results/221122_15.52_data_subj19_block1_trial19.csv,E059,1,80.0,140.0,220.0,True,9.501
19,20,1,False,soft,m,22,2022-11-22 15:52:43.452646,results/221122_15.52_data_subj19_block1_trial20.csv,E053,0,110.0,140.0,250.0,False,10.179
19,20,1,False,soft,m,22,2022-11-22 15:52:43.452646,results/221122_15.52_data_subj19_block1_trial20.csv,E072,1,20.0,320.0,340.0,True,10.179
19,21,1,False,soft,m,22,2022-11-22 15:52:43.452646,results/221122_15.52_data_subj19_block1_trial21.csv,E073(S18),0,797.0,116.0,913.0,True,13.129
19,21,1,False,soft,m,22,2022-11-22 15:52:43.452646,results/221122_15.52_data_subj19_block1_trial21.csv,E055,1,140.0,200.0,340.0,False,13.129
19,22,1,False,soft,m,22,2022-11-22 15:52:43.452646,results/221122_15.52_data_subj19_block1_trial22.csv,E071,0,20.0,260.0,280.0,True,12.344
19,22,1,False,soft,m,22,2022-11-22 15:52:43.452646,results/221122_15.52_data_subj19_block1_trial22.csv,E001,1,560.0,20.0,580.0,False,12.344
19,23,1,False,soft,m,22,2022-11-22 15:52:43.452646,results/221122_15.52_data_subj19_block1_trial23.csv,E039,0,440.0,320.0,760.0,False,11.581
19,23,1,False,soft,m,22,2022-11-22 15:52:43.452646,results/221122_15.52_data_subj19_block1_trial23.csv,E016,1,500.0,140.0,640.0,True,11.581
19,24,1,False,soft,m,22,2022-11-22 15:52:43.452646,results/221122_15.52_data_subj19_block1_trial24.csv,E032,0,440.0,260.0,700.0,True,11.528
19,24,1,False,soft,m,22,2022-11-22 15:52:43.452646,results/221122_15.52_data_subj19_block1_trial24.csv,E065,1,80.0,260.0,340.0,False,11.528
19,0,2,False,soft,m,22,2022-11-22 15:52:43.452646,results/221122_15.52_data_subj19_block2_trial0.csv,E071,0,20.0,260.0,280.0,True,10.028
19,0,2,False,soft,m,22,2022-11-22 15:52:43.452646,results/221122_15.52_data_subj19_block2_trial0.csv,E006,1,260.0,20.0,280.0,False,10.028
19,1,2,False,soft,m,22,2022-11-22 15:52:43.452646,results/221122_15.52_data_subj19_block2_trial1.csv,E004,0,320.0,20.0,340.0,True,10.295
19,1,2,False,soft,m,22,2022-11-22 15:52:43.452646,results/221122_15.52_data_subj19_block2_trial1.csv,E042,1,380.0,320.0,700.0,False,10.295
19,2,2,False,soft,m,22,2022-11-22 15:52:43.452646,results/221122_15.52_data_subj19_block2_trial2.csv,E025,0,320.0,140.0,460.0,True,9.463
19,2,2,False,soft,m,22,2022-11-22 15:52:43.452646,results/221122_15.52_data_subj19_block2_trial2.csv,E060,1,140.0,260.0,400.0,False,9.463
19,3,2,False,soft,m,22,2022-11-22 15:52:43.452646,results/221122_15.52_data_subj19_block2_trial3.csv,E036,0,380.0,260.0,640.0,False,9.389
19,3,2,False,soft,m,22,2022-11-22 15:52:43.452646,results/221122_15.52_data_subj19_block2_trial3.csv,E057,1,200.0,320.0,520.0,True,9.389
19,4,2,False,soft,m,22,2022-11-22 15:52:43.452646,results/221122_15.52_data_subj19_block2_trial4.csv,E041,0,140.0,110.0,250.0,False,8.515
19,4,2,False,soft,m,22,2022-11-22 15:52:43.452646,results/221122_15.52_data_subj19_block2_trial4.csv,E079(S41),1,50.0,110.0,160.0,True,8.515
19,5,2,False,soft,m,22,2022-11-22 15:52:43.452646,results/221122_15.52_data_subj19_block2_trial5.csv,E041,0,140.0,110.0,250.0,True,9.164
19,5,2,False,soft,m,22,2022-11-22 15:52:43.452646,results/221122_15.52_data_subj19_block2_trial5.csv,E084(S12),1,206.0,113.0,319.0,False,9.164
19,6,2,False,soft,m,22,2022-11-22 15:52:43.452646,results/221122_15.52_data_subj19_block2_trial6.csv,E017,0,170.0,50.0,220.0,True,9.186
19,6,2,False,soft,m,22,2022-11-22 15:52:43.452646,results/221122_15.52_data_subj19_block2_trial6.csv,E036,1,380.0,260.0,640.0,False,9.186
19,7,2,False,soft,m,22,2022-11-22 15:52:43.452646,results/221122_15.52_data_subj19_block2_trial7.csv,E074(S39),0,110.0,50.0,160.0,False,11.696
19,7,2,False,soft,m,22,2022-11-22 15:52:43.452646,results/221122_15.52_data_subj19_block2_trial7.csv,E038,1,110.0,80.0,190.0,True,11.696
19,8,2,False,soft,m,22,2022-11-22 15:52:43.452646,results/221122_15.52_data_subj19_block2_trial8.csv,E047,0,140.0,140.0,280.0,True,9.164
19,8,2,False,soft,m,22,2022-11-22 15:52:43.452646,results/221122_15.52_data_subj19_block2_trial8.csv,E021,1,560.0,200.0,760.0,False,9.164
19,9,2,False,soft,m,22,2022-11-22 15:52:43.452646,results/221122_15.52_data_subj19_block2_trial9.csv,E080(S07),0,106.0,610.0,716.0,False,9.279
19,9,2,False,soft,m,22,2022-11-22 15:52:43.452646,results/221122_15.52_data_subj19_block2_trial9.csv,E077(S32),1,110.0,110.0,220.0,True,9.279
19,10,2,False,soft,m,22,2022-11-22 15:52:43.452646,results/221122_15.52_data_subj19_block2_trial10.csv,E031,0,140.0,80.0,220.0,False,9.929
19,10,2,False,soft,m,22,2022-11-22 15:52:43.452646,results/221122_15.52_data_subj19_block2_trial10.csv,E058,1,50.0,80.0,130.0,True,9.929
19,11,2,False,soft,m,22,2022-11-22 15:52:43.452646,results/221122_15.52_data_subj19_block2_trial11.csv,E043,0,320.0,260.0,580.0,False,8.818
19,11,2,False,soft,m,22,2022-11-22 15:52:43.452646,results/221122_15.52_data_subj19_block2_trial11.csv,E030,1,260.0,140.0,400.0,True,8.818
19,12,2,False,soft,m,22,2022-11-22 15:52:43.452646,results/221122_15.52_data_subj19_block2_trial12.csv,E075(S42),0,20.0,20.0,40.0,True,8.363
19,12,2,False,soft,m,22,2022-11-22 15:52:43.452646,results/221122_15.52_data_subj19_block2_trial12.csv,E084(S12),1,206.0,113.0,319.0,False,8.363
19,13,2,False,soft,m,22,2022-11-22 15:52:43.452646,results/221122_15.52_data_subj19_block2_trial13.csv,E036,0,380.0,260.0,640.0,False,8.285
19,13,2,False,soft,m,22,2022-11-22 15:52:43.452646,results/221122_15.52_data_subj19_block2_trial13.csv,E011,1,440.0,80.0,520.0,True,8.285
19,14,2,False,soft,m,22,2022-11-22 15:52:43.452646,results/221122_15.52_data_subj19_block2_trial14.csv,E033,0,80.0,50.0,130.0,True,8.581
19,14,2,False,soft,m,22,2022-11-22 15:52:43.452646,results/221122_15.52_data_subj19_block2_trial14.csv,E009,1,560.0,80.0,640.0,False,8.581
19,15,2,False,soft,m,22,2022-11-22 15:52:43.452646,results/221122_15.52_data_subj19_block2_trial15.csv,E069,0,20.0,140.0,160.0,False,8.412
19,15,2,False,soft,m,22,2022-11-22 15:52:43.452646,results/221122_15.52_data_subj19_block2_trial15.csv,E046,1,200.0,200.0,400.0,True,8.412
19,16,2,False,soft,m,22,2022-11-22 15:52:43.452646,results/221122_15.52_data_subj19_block2_trial16.csv,E049,0,80.0,80.0,160.0,False,8.58
19,16,2,False,soft,m,22,2022-11-22 15:52:43.452646,results/221122_15.52_data_subj19_block2_trial16.csv,E075(S42),1,20.0,20.0,40.0,True,8.58
19,17,2,False,soft,m,22,2022-11-22 15:52:43.452646,results/221122_15.52_data_subj19_block2_trial17.csv,E027,0,170.0,80.0,250.0,False,10.066
19,17,2,False,soft,m,22,2022-11-22 15:52:43.452646,results/221122_15.52_data_subj19_block2_trial17.csv,E002,1,500.0,20.0,520.0,True,10.066
19,18,2,False,soft,m,22,2022-11-22 15:52:43.452646,results/221122_15.52_data_subj19_block2_trial18.csv,E030,0,260.0,140.0,400.0,True,8.064
19,18,2,False,soft,m,22,2022-11-22 15:52:43.452646,results/221122_15.52_data_subj19_block2_trial18.csv,E029,1,380.0,200.0,580.0,False,8.064
19,19,2,False,soft,m,22,2022-11-22 15:52:43.452646,results/221122_15.52_data_subj19_block2_trial19.csv,E035,0,170.0,110.0,280.0,True,8.914
19,19,2,False,soft,m,22,2022-11-22 15:52:43.452646,results/221122_15.52_data_subj19_block2_trial19.csv,E009,1,560.0,80.0,640.0,False,8.914
19,20,2,False,soft,m,22,2022-11-22 15:52:43.452646,results/221122_15.52_data_subj19_block2_trial20.csv,E048,0,170.0,170.0,340.0,True,8.417
19,20,2,False,soft,m,22,2022-11-22 15:52:43.452646,results/221122_15.52_data_subj19_block2_trial20.csv,E047,1,140.0,140.0,280.0,False,8.417
19,21,2,False,soft,m,22,2022-11-22 15:52:43.452646,results/221122_15.52_data_subj19_block2_trial21.csv,E065,0,80.0,260.0,340.0,True,9.565
19,21,2,False,soft,m,22,2022-11-22 15:52:43.452646,results/221122_15.52_data_subj19_block2_trial21.csv,E037,1,200.0,140.0,340.0,False,9.565
19,22,2,False,soft,m,22,2022-11-22 15:52:43.452646,results/221122_15.52_data_subj19_block2_trial22.csv,E049,0,80.0,80.0,160.0,True,11.596
19,22,2,False,soft,m,22,2022-11-22 15:52:43.452646,results/221122_15.52_data_subj19_block2_trial22.csv,E082(S40),1,22.0,113.0,135.0,False,11.596
19,23,2,False,soft,m,22,2022-11-22 15:52:43.452646,results/221122_15.52_data_subj19_block2_trial23.csv,E016,0,500.0,140.0,640.0,False,9.445
19,23,2,False,soft,m,22,2022-11-22 15:52:43.452646,results/221122_15.52_data_subj19_block2_trial23.csv,E083(S38),1,107.0,27.0,134.0,True,9.445
19,24,2,False,soft,m,22,2022-11-22 15:52:43.452646,results/221122_15.52_data_subj19_block2_trial24.csv,E076(S43),0,50.0,50.0,100.0,True,9.714
19,24,2,False,soft,m,22,2022-11-22 15:52:43.452646,results/221122_15.52_data_subj19_block2_trial24.csv,E035,1,170.0,110.0,280.0,False,9.714
19,0,3,False,soft,m,22,2022-11-22 15:52:43.452646,results/221122_15.52_data_subj19_block3_trial0.csv,E065,0,80.0,260.0,340.0,True,7.58
19,0,3,False,soft,m,22,2022-11-22 15:52:43.452646,results/221122_15.52_data_subj19_block3_trial0.csv,E052,1,260.0,320.0,580.0,False,7.58
19,1,3,False,soft,m,22,2022-11-22 15:52:43.452646,results/221122_15.52_data_subj19_block3_trial1.csv,E026,0,440.0,200.0,640.0,False,9.415
19,1,3,False,soft,m,22,2022-11-22 15:52:43.452646,results/221122_15.52_data_subj19_block3_trial1.csv,E033,1,80.0,50.0,130.0,True,9.415
19,2,3,False,soft,m,22,2022-11-22 15:52:43.452646,results/221122_15.52_data_subj19_block3_trial2.csv,E023,0,200.0,80.0,280.0,True,10.132
19,2,3,False,soft,m,22,2022-11-22 15:52:43.452646,results/221122_15.52_data_subj19_block3_trial2.csv,E023,1,200.0,80.0,280.0,False,10.132
19,3,3,False,soft,m,22,2022-11-22 15:52:43.452646,results/221122_15.52_data_subj19_block3_trial3.csv,E022,0,380.0,140.0,520.0,False,7.732
19,3,3,False,soft,m,22,2022-11-22 15:52:43.452646,results/221122_15.52_data_subj19_block3_trial3.csv,E004,1,320.0,20.0,340.0,True,7.732
19,4,3,False,soft,m,22,2022-11-22 15:52:43.452646,results/221122_15.52_data_subj19_block3_trial4.csv,E024,0,500.0,200.0,700.0,False,8.697
19,4,3,False,soft,m,22,2022-11-22 15:52:43.452646,results/221122_15.52_data_subj19_block3_trial4.csv,E001,1,560.0,20.0,580.0,True,8.697
19,5,3,False,soft,m,22,2022-11-22 15:52:43.452646,results/221122_15.52_data_subj19_block3_trial5.csv,E050,0,320.0,320.0,640.0,False,10.994
19,5,3,False,soft,m,22,2022-11-22 15:52:43.452646,results/221122_15.52_data_subj19_block3_trial5.csv,E050,1,320.0,320.0,640.0,True,10.994
19,6,3,False,soft,m,22,2022-11-22 15:52:43.452646,results/221122_15.52_data_subj19_block3_trial6.csv,E030,0,260.0,140.0,400.0,True,9.198
19,6,3,False,soft,m,22,2022-11-22 15:52:43.452646,results/221122_15.52_data_subj19_block3_trial6.csv,E080(S07),1,106.0,610.0,716.0,False,9.198
19,7,3,False,soft,m,22,2022-11-22 15:52:43.452646,results/221122_15.52_data_subj19_block3_trial7.csv,E080(S07),0,106.0,610.0,716.0,False,8.894
19,7,3,False,soft,m,22,2022-11-22 15:52:43.452646,results/221122_15.52_data_subj19_block3_trial7.csv,E001,1,560.0,20.0,580.0,True,8.894
19,8,3,False,soft,m,22,2022-11-22 15:52:43.452646,results/221122_15.52_data_subj19_block3_trial8.csv,E018,0,260.0,80.0,340.0,False,12.448
19,8,3,False,soft,m,22,2022-11-22 15:52:43.452646,results/221122_15.52_data_subj19_block3_trial8.csv,E084(S12),1,206.0,113.0,319.0,True,12.448
19,9,3,False,soft,m,22,2022-11-22 15:52:43.452646,results/221122_15.52_data_subj19_block3_trial9.csv,E070,0,20.0,200.0,220.0,True,9.629
19,9,3,False,soft,m,22,2022-11-22 15:52:43.452646,results/221122_15.52_data_subj19_block3_trial9.csv,E022,1,380.0,140.0,520.0,False,9.629
19,10,3,False,soft,m,22,2022-11-22 15:52:43.452646,results/221122_15.52_data_subj19_block3_trial10.csv,E019,0,440.0,140.0,580.0,True,10.429
19,10,3,False,soft,m,22,2022-11-22 15:52:43.452646,results/221122_15.52_data_subj19_block3_trial10.csv,E036,1,380.0,260.0,640.0,False,10.429
19,11,3,False,soft,m,22,2022-11-22 15:52:43.452646,results/221122_15.52_data_subj19_block3_trial11.csv,E051,0,140.0,170.0,310.0,True,9.52
19,11,3,False,soft,m,22,2022-11-22 15:52:43.452646,results/221122_15.52_data_subj19_block3_trial11.csv,E055,1,140.0,200.0,340.0,False,9.52
19,12,3,False,soft,m,22,2022-11-22 15:52:43.452646,results/221122_15.52_data_subj19_block3_trial12.csv,E039,0,440.0,320.0,760.0,False,9.23
19,12,3,False,soft,m,22,2022-11-22 15:52:43.452646,results/221122_15.52_data_subj19_block3_trial12.csv,E053,1,110.0,140.0,250.0,True,9.23
19,13,3,False,soft,m,22,2022-11-22 15:52:43.452646,results/221122_15.52_data_subj19_block3_trial13.csv,E055,0,140.0,200.0,340.0,False,10.23
19,13,3,False,soft,m,22,2022-11-22 15:52:43.452646,results/221122_15.52_data_subj19_block3_trial13.csv,E069,1,20.0,140.0,160.0,True,10.23
19,14,3,False,soft,m,22,2022-11-22 15:52:43.452646,results/221122_15.52_data_subj19_block3_trial14.csv,E039,0,440.0,320.0,760.0,False,9.214
19,14,3,False,soft,m,22,2022-11-22 15:52:43.452646,results/221122_15.52_data_subj19_block3_trial14.csv,E076(S43),1,50.0,50.0,100.0,True,9.214
19,15,3,False,soft,m,22,2022-11-22 15:52:43.452646,results/221122_15.52_data_subj19_block3_trial15.csv,E080(S07),0,106.0,610.0,716.0,True,10.577
19,15,3,False,soft,m,22,2022-11-22 15:52:43.452646,results/221122_15.52_data_subj19_block3_trial15.csv,E073(S18),1,797.0,116.0,913.0,False,10.577
19,16,3,False,soft,m,22,2022-11-22 15:52:43.452646,results/221122_15.52_data_subj19_block3_trial16.csv,E051,0,140.0,170.0,310.0,False,8.798
19,16,3,False,soft,m,22,2022-11-22 15:52:43.452646,results/221122_15.52_data_subj19_block3_trial16.csv,E070,1,20.0,200.0,220.0,True,8.798
19,17,3,False,soft,m,22,2022-11-22 15:52:43.452646,results/221122_15.52_data_subj19_block3_trial17.csv,E041,0,140.0,110.0,250.0,True,8.299
19,17,3,False,soft,m,22,2022-11-22 15:52:43.452646,results/221122_15.52_data_subj19_block3_trial17.csv,E040,1,260.0,200.0,460.0,False,8.299
19,18,3,False,soft,m,22,2022-11-22 15:52:43.452646,results/221122_15.52_data_subj19_block3_trial18.csv,E075(S42),0,20.0,20.0,40.0,True,8.813
19,18,3,False,soft,m,22,2022-11-22 15:52:43.452646,results/221122_15.52_data_subj19_block3_trial18.csv,E026,1,440.0,200.0,640.0,False,8.813
19,19,3,False,soft,m,22,2022-11-22 15:52:43.452646,results/221122_15.52_data_subj19_block3_trial19.csv,E051,0,140.0,170.0,310.0,False,8.112
19,19,3,False,soft,m,22,2022-11-22 15:52:43.452646,results/221122_15.52_data_subj19_block3_trial19.csv,E069,1,20.0,140.0,160.0,True,8.112
19,20,3,False,soft,m,22,2022-11-22 15:52:43.452646,results/221122_15.52_data_subj19_block3_trial20.csv,E065,0,80.0,260.0,340.0,True,10.047
19,20,3,False,soft,m,22,2022-11-22 15:52:43.452646,results/221122_15.52_data_subj19_block3_trial20.csv,E080(S07),1,106.0,610.0,716.0,False,10.047
19,21,3,False,soft,m,22,2022-11-22 15:52:43.452646,results/221122_15.52_data_subj19_block3_trial21.csv,E063,0,80.0,200.0,280.0,False,8.966
19,21,3,False,soft,m,22,2022-11-22 15:52:43.452646,results/221122_15.52_data_subj19_block3_trial21.csv,E059,1,80.0,140.0,220.0,True,8.966
19,22,3,False,soft,m,22,2022-11-22 15:52:43.452646,results/221122_15.52_data_subj19_block3_trial22.csv,E023,0,200.0,80.0,280.0,True,8.479
19,22,3,False,soft,m,22,2022-11-22 15:52:43.452646,results/221122_15.52_data_subj19_block3_trial22.csv,E009,1,560.0,80.0,640.0,False,8.479
19,23,3,False,soft,m,22,2022-11-22 15:52:43.452646,results/221122_15.52_data_subj19_block3_trial23.csv,E082(S40),0,22.0,113.0,135.0,False,10.23
19,23,3,False,soft,m,22,2022-11-22 15:52:43.452646,results/221122_15.52_data_subj19_block3_trial23.csv,E066,1,50.0,170.0,220.0,True,10.23
19,24,3,False,soft,m,22,2022-11-22 15:52:43.452646,results/221122_15.52_data_subj19_block3_trial24.csv,E069,0,20.0,140.0,160.0,False,8.326
19,24,3,False,soft,m,22,2022-11-22 15:52:43.452646,results/221122_15.52_data_subj19_block3_trial24.csv,E048,1,170.0,170.0,340.0,True,8.326
19,0,4,False,soft,m,22,2022-11-22 15:52:43.452646,results/221122_15.52_data_subj19_block4_trial0.csv,E065,0,80.0,260.0,340.0,True,8.881
19,0,4,False,soft,m,22,2022-11-22 15:52:43.452646,results/221122_15.52_data_subj19_block4_trial0.csv,E052,1,260.0,320.0,580.0,False,8.881
19,1,4,False,soft,m,22,2022-11-22 15:52:43.452646,results/221122_15.52_data_subj19_block4_trial1.csv,E026,0,440.0,200.0,640.0,False,12.281
19,1,4,False,soft,m,22,2022-11-22 15:52:43.452646,results/221122_15.52_data_subj19_block4_trial1.csv,E033,1,80.0,50.0,130.0,True,12.281
19,2,4,False,soft,m,22,2022-11-22 15:52:43.452646,results/221122_15.52_data_subj19_block4_trial2.csv,E023,0,200.0,80.0,280.0,True,10.197
19,2,4,False,soft,m,22,2022-11-22 15:52:43.452646,results/221122_15.52_data_subj19_block4_trial2.csv,E023,1,200.0,80.0,280.0,False,10.197
19,3,4,False,soft,m,22,2022-11-22 15:52:43.452646,results/221122_15.52_data_subj19_block4_trial3.csv,E022,0,380.0,140.0,520.0,False,8.278
19,3,4,False,soft,m,22,2022-11-22 15:52:43.452646,results/221122_15.52_data_subj19_block4_trial3.csv,E004,1,320.0,20.0,340.0,True,8.278
19,4,4,False,soft,m,22,2022-11-22 15:52:43.452646,results/221122_15.52_data_subj19_block4_trial4.csv,E024,0,500.0,200.0,700.0,False,7.977
19,4,4,False,soft,m,22,2022-11-22 15:52:43.452646,results/221122_15.52_data_subj19_block4_trial4.csv,E001,1,560.0,20.0,580.0,True,7.977
19,5,4,False,soft,m,22,2022-11-22 15:52:43.452646,results/221122_15.52_data_subj19_block4_trial5.csv,E050,0,320.0,320.0,640.0,False,11.378
19,5,4,False,soft,m,22,2022-11-22 15:52:43.452646,results/221122_15.52_data_subj19_block4_trial5.csv,E050,1,320.0,320.0,640.0,True,11.378
19,6,4,False,soft,m,22,2022-11-22 15:52:43.452646,results/221122_15.52_data_subj19_block4_trial6.csv,E030,0,260.0,140.0,400.0,True,9.712
19,6,4,False,soft,m,22,2022-11-22 15:52:43.452646,results/221122_15.52_data_subj19_block4_trial6.csv,E080(S07),1,106.0,610.0,716.0,False,9.712
19,7,4,False,soft,m,22,2022-11-22 15:52:43.452646,results/221122_15.52_data_subj19_block4_trial7.csv,E080(S07),0,106.0,610.0,716.0,False,8.015
19,7,4,False,soft,m,22,2022-11-22 15:52:43.452646,results/221122_15.52_data_subj19_block4_trial7.csv,E001,1,560.0,20.0,580.0,True,8.015
19,8,4,False,soft,m,22,2022-11-22 15:52:43.452646,results/221122_15.52_data_subj19_block4_trial8.csv,E018,0,260.0,80.0,340.0,True,8.774
19,8,4,False,soft,m,22,2022-11-22 15:52:43.452646,results/221122_15.52_data_subj19_block4_trial8.csv,E084(S12),1,206.0,113.0,319.0,False,8.774
19,9,4,False,soft,m,22,2022-11-22 15:52:43.452646,results/221122_15.52_data_subj19_block4_trial9.csv,E070,0,20.0,200.0,220.0,True,7.95
19,9,4,False,soft,m,22,2022-11-22 15:52:43.452646,results/221122_15.52_data_subj19_block4_trial9.csv,E022,1,380.0,140.0,520.0,False,7.95
19,10,4,False,soft,m,22,2022-11-22 15:52:43.452646,results/221122_15.52_data_subj19_block4_trial10.csv,E019,0,440.0,140.0,580.0,True,10.114
19,10,4,False,soft,m,22,2022-11-22 15:52:43.452646,results/221122_15.52_data_subj19_block4_trial10.csv,E036,1,380.0,260.0,640.0,False,10.114
19,11,4,False,soft,m,22,2022-11-22 15:52:43.452646,results/221122_15.52_data_subj19_block4_trial11.csv,E051,0,140.0,170.0,310.0,True,10.213
19,11,4,False,soft,m,22,2022-11-22 15:52:43.452646,results/221122_15.52_data_subj19_block4_trial11.csv,E055,1,140.0,200.0,340.0,False,10.213
19,12,4,False,soft,m,22,2022-11-22 15:52:43.452646,results/221122_15.52_data_subj19_block4_trial12.csv,E039,0,440.0,320.0,760.0,True,10.915
19,12,4,False,soft,m,22,2022-11-22 15:52:43.452646,results/221122_15.52_data_subj19_block4_trial12.csv,E053,1,110.0,140.0,250.0,False,10.915
19,13,4,False,soft,m,22,2022-11-22 15:52:43.452646,results/221122_15.52_data_subj19_block4_trial13.csv,E055,0,140.0,200.0,340.0,False,8.798
19,13,4,False,soft,m,22,2022-11-22 15:52:43.452646,results/221122_15.52_data_subj19_block4_trial13.csv,E069,1,20.0,140.0,160.0,True,8.798
19,14,4,False,soft,m,22,2022-11-22 15:52:43.452646,results/221122_15.52_data_subj19_block4_trial14.csv,E039,0,440.0,320.0,760.0,False,7.88
19,14,4,False,soft,m,22,2022-11-22 15:52:43.452646,results/221122_15.52_data_subj19_block4_trial14.csv,E076(S43),1,50.0,50.0,100.0,True,7.88
19,15,4,False,soft,m,22,2022-11-22 15:52:43.452646,results/221122_15.52_data_subj19_block4_trial15.csv,E080(S07),0,106.0,610.0,716.0,True,11.115
19,15,4,False,soft,m,22,2022-11-22 15:52:43.452646,results/221122_15.52_data_subj19_block4_trial15.csv,E073(S18),1,797.0,116.0,913.0,False,11.115
19,16,4,False,soft,m,22,2022-11-22 15:52:43.452646,results/221122_15.52_data_subj19_block4_trial16.csv,E051,0,140.0,170.0,310.0,False,9.531
19,16,4,False,soft,m,22,2022-11-22 15:52:43.452646,results/221122_15.52_data_subj19_block4_trial16.csv,E070,1,20.0,200.0,220.0,True,9.531
19,17,4,False,soft,m,22,2022-11-22 15:52:43.452646,results/221122_15.52_data_subj19_block4_trial17.csv,E041,0,140.0,110.0,250.0,True,9.964
19,17,4,False,soft,m,22,2022-11-22 15:52:43.452646,results/221122_15.52_data_subj19_block4_trial17.csv,E040,1,260.0,200.0,460.0,False,9.964
19,18,4,False,soft,m,22,2022-11-22 15:52:43.452646,results/221122_15.52_data_subj19_block4_trial18.csv,E075(S42),0,20.0,20.0,40.0,True,8.664
19,18,4,False,soft,m,22,2022-11-22 15:52:43.452646,results/221122_15.52_data_subj19_block4_trial18.csv,E026,1,440.0,200.0,640.0,False,8.664
19,19,4,False,soft,m,22,2022-11-22 15:52:43.452646,results/221122_15.52_data_subj19_block4_trial19.csv,E051,0,140.0,170.0,310.0,False,11.382
19,19,4,False,soft,m,22,2022-11-22 15:52:43.452646,results/221122_15.52_data_subj19_block4_trial19.csv,E069,1,20.0,140.0,160.0,True,11.382
19,20,4,False,soft,m,22,2022-11-22 15:52:43.452646,results/221122_15.52_data_subj19_block4_trial20.csv,E065,0,80.0,260.0,340.0,True,9.264
19,20,4,False,soft,m,22,2022-11-22 15:52:43.452646,results/221122_15.52_data_subj19_block4_trial20.csv,E080(S07),1,106.0,610.0,716.0,False,9.264
19,21,4,False,soft,m,22,2022-11-22 15:52:43.452646,results/221122_15.52_data_subj19_block4_trial21.csv,E063,0,80.0,200.0,280.0,False,8.396
19,21,4,False,soft,m,22,2022-11-22 15:52:43.452646,results/221122_15.52_data_subj19_block4_trial21.csv,E059,1,80.0,140.0,220.0,True,8.396
19,22,4,False,soft,m,22,2022-11-22 15:52:43.452646,results/221122_15.52_data_subj19_block4_trial22.csv,E023,0,200.0,80.0,280.0,True,9.996
19,22,4,False,soft,m,22,2022-11-22 15:52:43.452646,results/221122_15.52_data_subj19_block4_trial22.csv,E009,1,560.0,80.0,640.0,False,9.996
19,23,4,False,soft,m,22,2022-11-22 15:52:43.452646,results/221122_15.52_data_subj19_block4_trial23.csv,E082(S40),0,22.0,113.0,135.0,True,9.145
19,23,4,False,soft,m,22,2022-11-22 15:52:43.452646,results/221122_15.52_data_subj19_block4_trial23.csv,E066,1,50.0,170.0,220.0,False,9.145
19,24,4,False,soft,m,22,2022-11-22 15:52:43.452646,results/221122_15.52_data_subj19_block4_trial24.csv,E069,0,20.0,140.0,160.0,True,8.149
19,24,4,False,soft,m,22,2022-11-22 15:52:43.452646,results/221122_15.52_data_subj19_block4_trial24.csv,E048,1,170.0,170.0,340.0,False,8.149
