subj,trial,block,practice,condition,sex,age,date,data_file,texture_id,stim_order,diameter,opening,spacing,response,rt
6,0,1,False,soft,f,23,2022-11-10 08:22:05.219727,results/221110_08.22_data_subj6_block1_trial0.csv,E030,0,260.0,140.0,400.0,False,10.857
6,0,1,False,soft,f,23,2022-11-10 08:22:05.219727,results/221110_08.22_data_subj6_block1_trial0.csv,E064,1,50.0,140.0,190.0,True,10.857
6,1,1,False,soft,f,23,2022-11-10 08:22:05.219727,results/221110_08.22_data_subj6_block1_trial1.csv,E061,0,80.0,170.0,250.0,True,11.883
6,1,1,False,soft,f,23,2022-11-10 08:22:05.219727,results/221110_08.22_data_subj6_block1_trial1.csv,E006,1,260.0,20.0,280.0,False,11.883
6,2,1,False,soft,f,23,2022-11-10 08:22:05.219727,results/221110_08.22_data_subj6_block1_trial2.csv,E048,0,170.0,170.0,340.0,False,10.245
6,2,1,False,soft,f,23,2022-11-10 08:22:05.219727,results/221110_08.22_data_subj6_block1_trial2.csv,E038,1,110.0,80.0,190.0,True,10.245
6,3,1,False,soft,f,23,2022-11-10 08:22:05.219727,results/221110_08.22_data_subj6_block1_trial3.csv,E069,0,20.0,140.0,160.0,True,9.698
6,3,1,False,soft,f,23,2022-11-10 08:22:05.219727,results/221110_08.22_data_subj6_block1_trial3.csv,E065,1,80.0,260.0,340.0,False,9.698
6,4,1,False,soft,f,23,2022-11-10 08:22:05.219727,results/221110_08.22_data_subj6_block1_trial4.csv,E028,0,500.0,260.0,760.0,True,9.379
6,4,1,False,soft,f,23,2022-11-10 08:22:05.219727,results/221110_08.22_data_subj6_block1_trial4.csv,E052,1,260.0,320.0,580.0,False,9.379
6,5,1,False,soft,f,23,2022-11-10 08:22:05.219727,results/221110_08.22_data_subj6_block1_trial5.csv,E017,0,170.0,50.0,220.0,True,9.393
6,5,1,False,soft,f,23,2022-11-10 08:22:05.219727,results/221110_08.22_data_subj6_block1_trial5.csv,E056,1,110.0,170.0,280.0,False,9.393
6,6,1,False,soft,f,23,2022-11-10 08:22:05.219727,results/221110_08.22_data_subj6_block1_trial6.csv,E034,0,320.0,200.0,520.0,False,10.399
6,6,1,False,soft,f,23,2022-11-10 08:22:05.219727,results/221110_08.22_data_subj6_block1_trial6.csv,E079,1,50.0,110.0,160.0,True,10.399
6,7,1,False,soft,f,23,2022-11-10 08:22:05.219727,results/221110_08.22_data_subj6_block1_trial7.csv,E034,0,320.0,200.0,520.0,True,8.764
6,7,1,False,soft,f,23,2022-11-10 08:22:05.219727,results/221110_08.22_data_subj6_block1_trial7.csv,E071,1,20.0,260.0,280.0,False,8.764
6,8,1,False,soft,f,23,2022-11-10 08:22:05.219727,results/221110_08.22_data_subj6_block1_trial8.csv,E072,0,20.0,320.0,340.0,False,9.776
6,8,1,False,soft,f,23,2022-11-10 08:22:05.219727,results/221110_08.22_data_subj6_block1_trial8.csv,E076,1,50.0,50.0,100.0,True,9.776
6,9,1,False,soft,f,23,2022-11-10 08:22:05.219727,results/221110_08.22_data_subj6_block1_trial9.csv,E021,0,560.0,200.0,760.0,False,9.116
6,9,1,False,soft,f,23,2022-11-10 08:22:05.219727,results/221110_08.22_data_subj6_block1_trial9.csv,E074,1,110.0,50.0,160.0,True,9.116
6,10,1,False,soft,f,23,2022-11-10 08:22:05.219727,results/221110_08.22_data_subj6_block1_trial10.csv,E048,0,170.0,170.0,340.0,True,8.131
6,10,1,False,soft,f,23,2022-11-10 08:22:05.219727,results/221110_08.22_data_subj6_block1_trial10.csv,E024,1,500.0,200.0,700.0,False,8.131
6,11,1,False,soft,f,23,2022-11-10 08:22:05.219727,results/221110_08.22_data_subj6_block1_trial11.csv,E001,0,560.0,20.0,580.0,False,9.045
6,11,1,False,soft,f,23,2022-11-10 08:22:05.219727,results/221110_08.22_data_subj6_block1_trial11.csv,E033,1,80.0,50.0,130.0,True,9.045
6,12,1,False,soft,f,23,2022-11-10 08:22:05.219727,results/221110_08.22_data_subj6_block1_trial12.csv,E017,0,170.0,50.0,220.0,True,8.781
6,12,1,False,soft,f,23,2022-11-10 08:22:05.219727,results/221110_08.22_data_subj6_block1_trial12.csv,E009,1,560.0,80.0,640.0,False,8.781
6,13,1,False,soft,f,23,2022-11-10 08:22:05.219727,results/221110_08.22_data_subj6_block1_trial13.csv,E083,0,107.0,27.0,134.0,True,8.515
6,13,1,False,soft,f,23,2022-11-10 08:22:05.219727,results/221110_08.22_data_subj6_block1_trial13.csv,E016,1,500.0,140.0,640.0,False,8.515
6,14,1,False,soft,f,23,2022-11-10 08:22:05.219727,results/221110_08.22_data_subj6_block1_trial14.csv,E057,0,200.0,320.0,520.0,False,9.063
6,14,1,False,soft,f,23,2022-11-10 08:22:05.219727,results/221110_08.22_data_subj6_block1_trial14.csv,E065,1,80.0,260.0,340.0,True,9.063
6,15,1,False,soft,f,23,2022-11-10 08:22:05.219727,results/221110_08.22_data_subj6_block1_trial15.csv,E001,0,560.0,20.0,580.0,True,9.479
6,15,1,False,soft,f,23,2022-11-10 08:22:05.219727,results/221110_08.22_data_subj6_block1_trial15.csv,E065,1,80.0,260.0,340.0,False,9.479
6,16,1,False,soft,f,23,2022-11-10 08:22:05.219727,results/221110_08.22_data_subj6_block1_trial16.csv,E055,0,140.0,200.0,340.0,False,8.946
6,16,1,False,soft,f,23,2022-11-10 08:22:05.219727,results/221110_08.22_data_subj6_block1_trial16.csv,E068,1,20.0,80.0,100.0,True,8.946
6,17,1,False,soft,f,23,2022-11-10 08:22:05.219727,results/221110_08.22_data_subj6_block1_trial17.csv,E023,0,200.0,80.0,280.0,True,8.93
6,17,1,False,soft,f,23,2022-11-10 08:22:05.219727,results/221110_08.22_data_subj6_block1_trial17.csv,E070,1,20.0,200.0,220.0,False,8.93
6,18,1,False,soft,f,23,2022-11-10 08:22:05.219727,results/221110_08.22_data_subj6_block1_trial18.csv,E025,0,320.0,140.0,460.0,False,9.748
6,18,1,False,soft,f,23,2022-11-10 08:22:05.219727,results/221110_08.22_data_subj6_block1_trial18.csv,E061,1,80.0,170.0,250.0,True,9.748
6,19,1,False,soft,f,23,2022-11-10 08:22:05.219727,results/221110_08.22_data_subj6_block1_trial19.csv,E081,0,107.0,210.0,317.0,True,8.364
6,19,1,False,soft,f,23,2022-11-10 08:22:05.219727,results/221110_08.22_data_subj6_block1_trial19.csv,E057,1,200.0,320.0,520.0,False,8.364
6,20,1,False,soft,f,23,2022-11-10 08:22:05.219727,results/221110_08.22_data_subj6_block1_trial20.csv,E002,0,500.0,20.0,520.0,False,8.532
6,20,1,False,soft,f,23,2022-11-10 08:22:05.219727,results/221110_08.22_data_subj6_block1_trial20.csv,E025,1,320.0,140.0,460.0,True,8.532
6,21,1,False,soft,f,23,2022-11-10 08:22:05.219727,results/221110_08.22_data_subj6_block1_trial21.csv,E038,0,110.0,80.0,190.0,False,9.531
6,21,1,False,soft,f,23,2022-11-10 08:22:05.219727,results/221110_08.22_data_subj6_block1_trial21.csv,E033,1,80.0,50.0,130.0,True,9.531
6,22,1,False,soft,f,23,2022-11-10 08:22:05.219727,results/221110_08.22_data_subj6_block1_trial22.csv,E070,0,20.0,200.0,220.0,False,9.498
6,22,1,False,soft,f,23,2022-11-10 08:22:05.219727,results/221110_08.22_data_subj6_block1_trial22.csv,E013,1,80.0,20.0,100.0,True,9.498
6,23,1,False,soft,f,23,2022-11-10 08:22:05.219727,results/221110_08.22_data_subj6_block1_trial23.csv,E076,0,50.0,50.0,100.0,True,9.114
6,23,1,False,soft,f,23,2022-11-10 08:22:05.219727,results/221110_08.22_data_subj6_block1_trial23.csv,E032,1,440.0,260.0,700.0,False,9.114
6,24,1,False,soft,f,23,2022-11-10 08:22:05.219727,results/221110_08.22_data_subj6_block1_trial24.csv,E025,0,320.0,140.0,460.0,True,9.431
6,24,1,False,soft,f,23,2022-11-10 08:22:05.219727,results/221110_08.22_data_subj6_block1_trial24.csv,E015,1,560.0,140.0,700.0,False,9.431
6,0,2,False,soft,f,23,2022-11-10 08:22:05.219727,results/221110_08.22_data_subj6_block2_trial0.csv,E007,0,200.0,20.0,220.0,True,9.213
6,0,2,False,soft,f,23,2022-11-10 08:22:05.219727,results/221110_08.22_data_subj6_block2_trial0.csv,E010,1,500.0,80.0,580.0,False,9.213
6,1,2,False,soft,f,23,2022-11-10 08:22:05.219727,results/221110_08.22_data_subj6_block2_trial1.csv,E003,0,440.0,20.0,460.0,True,10.016
6,1,2,False,soft,f,23,2022-11-10 08:22:05.219727,results/221110_08.22_data_subj6_block2_trial1.csv,E022,1,380.0,140.0,520.0,False,10.016
6,2,2,False,soft,f,23,2022-11-10 08:22:05.219727,results/221110_08.22_data_subj6_block2_trial2.csv,E043,0,320.0,260.0,580.0,False,9.414
6,2,2,False,soft,f,23,2022-11-10 08:22:05.219727,results/221110_08.22_data_subj6_block2_trial2.csv,E078,1,80.0,110.0,190.0,True,9.414
6,3,2,False,soft,f,23,2022-11-10 08:22:05.219727,results/221110_08.22_data_subj6_block2_trial3.csv,E020,0,140.0,50.0,190.0,False,9.145
6,3,2,False,soft,f,23,2022-11-10 08:22:05.219727,results/221110_08.22_data_subj6_block2_trial3.csv,E075,1,20.0,20.0,40.0,True,9.145
6,4,2,False,soft,f,23,2022-11-10 08:22:05.219727,results/221110_08.22_data_subj6_block2_trial4.csv,E038,0,110.0,80.0,190.0,False,9.298
6,4,2,False,soft,f,23,2022-11-10 08:22:05.219727,results/221110_08.22_data_subj6_block2_trial4.csv,E074,1,110.0,50.0,160.0,True,9.298
6,5,2,False,soft,f,23,2022-11-10 08:22:05.219727,results/221110_08.22_data_subj6_block2_trial5.csv,E035,0,170.0,110.0,280.0,True,9.708
6,5,2,False,soft,f,23,2022-11-10 08:22:05.219727,results/221110_08.22_data_subj6_block2_trial5.csv,E021,1,560.0,200.0,760.0,False,9.708
6,6,2,False,soft,f,23,2022-11-10 08:22:05.219727,results/221110_08.22_data_subj6_block2_trial6.csv,E077,0,110.0,110.0,220.0,False,10.131
6,6,2,False,soft,f,23,2022-11-10 08:22:05.219727,results/221110_08.22_data_subj6_block2_trial6.csv,E064,1,50.0,140.0,190.0,True,10.131
6,7,2,False,soft,f,23,2022-11-10 08:22:05.219727,results/221110_08.22_data_subj6_block2_trial7.csv,E010,0,500.0,80.0,580.0,False,10.513
6,7,2,False,soft,f,23,2022-11-10 08:22:05.219727,results/221110_08.22_data_subj6_block2_trial7.csv,E046,1,200.0,200.0,400.0,True,10.513
6,8,2,False,soft,f,23,2022-11-10 08:22:05.219727,results/221110_08.22_data_subj6_block2_trial8.csv,E073,0,797.0,116.0,913.0,True,10.414
6,8,2,False,soft,f,23,2022-11-10 08:22:05.219727,results/221110_08.22_data_subj6_block2_trial8.csv,E006,1,260.0,20.0,280.0,False,10.414
6,9,2,False,soft,f,23,2022-11-10 08:22:05.219727,results/221110_08.22_data_subj6_block2_trial9.csv,E076,0,50.0,50.0,100.0,True,10.361
6,9,2,False,soft,f,23,2022-11-10 08:22:05.219727,results/221110_08.22_data_subj6_block2_trial9.csv,E015,1,560.0,140.0,700.0,False,10.361
6,10,2,False,soft,f,23,2022-11-10 08:22:05.219727,results/221110_08.22_data_subj6_block2_trial10.csv,E074,0,110.0,50.0,160.0,True,9.848
6,10,2,False,soft,f,23,2022-11-10 08:22:05.219727,results/221110_08.22_data_subj6_block2_trial10.csv,E031,1,140.0,80.0,220.0,False,9.848
6,11,2,False,soft,f,23,2022-11-10 08:22:05.219727,results/221110_08.22_data_subj6_block2_trial11.csv,E071,0,20.0,260.0,280.0,False,10.081
6,11,2,False,soft,f,23,2022-11-10 08:22:05.219727,results/221110_08.22_data_subj6_block2_trial11.csv,E043,1,320.0,260.0,580.0,True,10.081
6,12,2,False,soft,f,23,2022-11-10 08:22:05.219727,results/221110_08.22_data_subj6_block2_trial12.csv,E079,0,50.0,110.0,160.0,True,9.514
6,12,2,False,soft,f,23,2022-11-10 08:22:05.219727,results/221110_08.22_data_subj6_block2_trial12.csv,E024,1,500.0,200.0,700.0,False,9.514
6,13,2,False,soft,f,23,2022-11-10 08:22:05.219727,results/221110_08.22_data_subj6_block2_trial13.csv,E051,0,140.0,170.0,310.0,True,9.64
6,13,2,False,soft,f,23,2022-11-10 08:22:05.219727,results/221110_08.22_data_subj6_block2_trial13.csv,E067,1,80.0,320.0,400.0,False,9.64
6,14,2,False,soft,f,23,2022-11-10 08:22:05.219727,results/221110_08.22_data_subj6_block2_trial14.csv,E010,0,500.0,80.0,580.0,True,9.279
6,14,2,False,soft,f,23,2022-11-10 08:22:05.219727,results/221110_08.22_data_subj6_block2_trial14.csv,E052,1,260.0,320.0,580.0,False,9.279
6,15,2,False,soft,f,23,2022-11-10 08:22:05.219727,results/221110_08.22_data_subj6_block2_trial15.csv,E052,0,260.0,320.0,580.0,False,9.413
6,15,2,False,soft,f,23,2022-11-10 08:22:05.219727,results/221110_08.22_data_subj6_block2_trial15.csv,E001,1,560.0,20.0,580.0,True,9.413
6,16,2,False,soft,f,23,2022-11-10 08:22:05.219727,results/221110_08.22_data_subj6_block2_trial16.csv,E036,0,380.0,260.0,640.0,False,9.615
6,16,2,False,soft,f,23,2022-11-10 08:22:05.219727,results/221110_08.22_data_subj6_block2_trial16.csv,E005,1,380.0,20.0,400.0,True,9.615
6,17,2,False,soft,f,23,2022-11-10 08:22:05.219727,results/221110_08.22_data_subj6_block2_trial17.csv,E077,0,110.0,110.0,220.0,False,8.898
6,17,2,False,soft,f,23,2022-11-10 08:22:05.219727,results/221110_08.22_data_subj6_block2_trial17.csv,E010,1,500.0,80.0,580.0,True,8.898
6,18,2,False,soft,f,23,2022-11-10 08:22:05.219727,results/221110_08.22_data_subj6_block2_trial18.csv,E009,0,560.0,80.0,640.0,False,9.763
6,18,2,False,soft,f,23,2022-11-10 08:22:05.219727,results/221110_08.22_data_subj6_block2_trial18.csv,E023,1,200.0,80.0,280.0,True,9.763
6,19,2,False,soft,f,23,2022-11-10 08:22:05.219727,results/221110_08.22_data_subj6_block2_trial19.csv,E007,0,200.0,20.0,220.0,False,10.031
6,19,2,False,soft,f,23,2022-11-10 08:22:05.219727,results/221110_08.22_data_subj6_block2_trial19.csv,E058,1,50.0,80.0,130.0,True,10.031
6,20,2,False,soft,f,23,2022-11-10 08:22:05.219727,results/221110_08.22_data_subj6_block2_trial20.csv,E039,0,440.0,320.0,760.0,False,11.031
6,20,2,False,soft,f,23,2022-11-10 08:22:05.219727,results/221110_08.22_data_subj6_block2_trial20.csv,E010,1,500.0,80.0,580.0,True,11.031
6,21,2,False,soft,f,23,2022-11-10 08:22:05.219727,results/221110_08.22_data_subj6_block2_trial21.csv,E002,0,500.0,20.0,520.0,True,10.247
6,21,2,False,soft,f,23,2022-11-10 08:22:05.219727,results/221110_08.22_data_subj6_block2_trial21.csv,E015,1,560.0,140.0,700.0,False,10.247
6,22,2,False,soft,f,23,2022-11-10 08:22:05.219727,results/221110_08.22_data_subj6_block2_trial22.csv,E040,0,260.0,200.0,460.0,True,10.031
6,22,2,False,soft,f,23,2022-11-10 08:22:05.219727,results/221110_08.22_data_subj6_block2_trial22.csv,E054,1,200.0,260.0,460.0,False,10.031
6,23,2,False,soft,f,23,2022-11-10 08:22:05.219727,results/221110_08.22_data_subj6_block2_trial23.csv,E013,0,80.0,20.0,100.0,True,9.913
6,23,2,False,soft,f,23,2022-11-10 08:22:05.219727,results/221110_08.22_data_subj6_block2_trial23.csv,E069,1,20.0,140.0,160.0,False,9.913
6,24,2,False,soft,f,23,2022-11-10 08:22:05.219727,results/221110_08.22_data_subj6_block2_trial24.csv,E081,0,107.0,210.0,317.0,False,11.049
6,24,2,False,soft,f,23,2022-11-10 08:22:05.219727,results/221110_08.22_data_subj6_block2_trial24.csv,E025,1,320.0,140.0,460.0,True,11.049
6,0,3,False,soft,f,23,2022-11-10 08:22:05.219727,results/221110_08.22_data_subj6_block3_trial0.csv,E038,0,110.0,80.0,190.0,True,11.512
6,0,3,False,soft,f,23,2022-11-10 08:22:05.219727,results/221110_08.22_data_subj6_block3_trial0.csv,E071,1,20.0,260.0,280.0,False,11.512
6,1,3,False,soft,f,23,2022-11-10 08:22:05.219727,results/221110_08.22_data_subj6_block3_trial1.csv,E059,0,80.0,140.0,220.0,True,11.396
6,1,3,False,soft,f,23,2022-11-10 08:22:05.219727,results/221110_08.22_data_subj6_block3_trial1.csv,E038,1,110.0,80.0,190.0,False,11.396
6,2,3,False,soft,f,23,2022-11-10 08:22:05.219727,results/221110_08.22_data_subj6_block3_trial2.csv,E081,0,107.0,210.0,317.0,True,10.396
6,2,3,False,soft,f,23,2022-11-10 08:22:05.219727,results/221110_08.22_data_subj6_block3_trial2.csv,E048,1,170.0,170.0,340.0,False,10.396
6,3,3,False,soft,f,23,2022-11-10 08:22:05.219727,results/221110_08.22_data_subj6_block3_trial3.csv,E025,0,320.0,140.0,460.0,True,9.898
6,3,3,False,soft,f,23,2022-11-10 08:22:05.219727,results/221110_08.22_data_subj6_block3_trial3.csv,E032,1,440.0,260.0,700.0,False,9.898
6,4,3,False,soft,f,23,2022-11-10 08:22:05.219727,results/221110_08.22_data_subj6_block3_trial4.csv,E036,0,380.0,260.0,640.0,False,10.263
6,4,3,False,soft,f,23,2022-11-10 08:22:05.219727,results/221110_08.22_data_subj6_block3_trial4.csv,E037,1,380.0,260.0,640.0,True,10.263
6,5,3,False,soft,f,23,2022-11-10 08:22:05.219727,results/221110_08.22_data_subj6_block3_trial5.csv,E080,0,106.0,610.0,716.0,False,10.397
6,5,3,False,soft,f,23,2022-11-10 08:22:05.219727,results/221110_08.22_data_subj6_block3_trial5.csv,E042,1,380.0,320.0,700.0,True,10.397
6,6,3,False,soft,f,23,2022-11-10 08:22:05.219727,results/221110_08.22_data_subj6_block3_trial6.csv,E003,0,440.0,20.0,460.0,True,10.566
6,6,3,False,soft,f,23,2022-11-10 08:22:05.219727,results/221110_08.22_data_subj6_block3_trial6.csv,E071,1,20.0,260.0,280.0,False,10.566
6,7,3,False,soft,f,23,2022-11-10 08:22:05.219727,results/221110_08.22_data_subj6_block3_trial7.csv,E036,0,380.0,260.0,640.0,False,11.964
6,7,3,False,soft,f,23,2022-11-10 08:22:05.219727,results/221110_08.22_data_subj6_block3_trial7.csv,E056,1,110.0,170.0,280.0,True,11.964
6,8,3,False,soft,f,23,2022-11-10 08:22:05.219727,results/221110_08.22_data_subj6_block3_trial8.csv,E078,0,80.0,110.0,190.0,True,12.347
6,8,3,False,soft,f,23,2022-11-10 08:22:05.219727,results/221110_08.22_data_subj6_block3_trial8.csv,E036,1,380.0,260.0,640.0,False,12.347
6,9,3,False,soft,f,23,2022-11-10 08:22:05.219727,results/221110_08.22_data_subj6_block3_trial9.csv,E026,0,440.0,200.0,640.0,False,11.963
6,9,3,False,soft,f,23,2022-11-10 08:22:05.219727,results/221110_08.22_data_subj6_block3_trial9.csv,E003,1,440.0,20.0,460.0,True,11.963
6,10,3,False,soft,f,23,2022-11-10 08:22:05.219727,results/221110_08.22_data_subj6_block3_trial10.csv,E067,0,80.0,320.0,400.0,False,10.882
6,10,3,False,soft,f,23,2022-11-10 08:22:05.219727,results/221110_08.22_data_subj6_block3_trial10.csv,E010,1,500.0,80.0,580.0,True,10.882
6,11,3,False,soft,f,23,2022-11-10 08:22:05.219727,results/221110_08.22_data_subj6_block3_trial11.csv,E054,0,200.0,260.0,460.0,False,12.229
6,11,3,False,soft,f,23,2022-11-10 08:22:05.219727,results/221110_08.22_data_subj6_block3_trial11.csv,E033,1,80.0,50.0,130.0,True,12.229
6,12,3,False,soft,f,23,2022-11-10 08:22:05.219727,results/221110_08.22_data_subj6_block3_trial12.csv,E062,0,140.0,320.0,460.0,False,10.463
6,12,3,False,soft,f,23,2022-11-10 08:22:05.219727,results/221110_08.22_data_subj6_block3_trial12.csv,E037,1,200.0,140.0,340.0,True,10.463
6,13,3,False,soft,f,23,2022-11-10 08:22:05.219727,results/221110_08.22_data_subj6_block3_trial13.csv,E074,0,110.0,50.0,160.0,False,11.697
6,13,3,False,soft,f,23,2022-11-10 08:22:05.219727,results/221110_08.22_data_subj6_block3_trial13.csv,E058,1,50.0,80.0,130.0,True,11.697
6,14,3,False,soft,f,23,2022-11-10 08:22:05.219727,results/221110_08.22_data_subj6_block3_trial14.csv,E029,0,380.0,200.0,580.0,True,9.447
6,14,3,False,soft,f,23,2022-11-10 08:22:05.219727,results/221110_08.22_data_subj6_block3_trial14.csv,E028,1,500.0,260.0,760.0,False,9.447
6,15,3,False,soft,f,23,2022-11-10 08:22:05.219727,results/221110_08.22_data_subj6_block3_trial15.csv,E010,0,500.0,80.0,580.0,False,11.213
6,15,3,False,soft,f,23,2022-11-10 08:22:05.219727,results/221110_08.22_data_subj6_block3_trial15.csv,E011,1,500.0,80.0,580.0,True,11.213
6,16,3,False,soft,f,23,2022-11-10 08:22:05.219727,results/221110_08.22_data_subj6_block3_trial16.csv,E052,0,260.0,320.0,580.0,False,13.077
6,16,3,False,soft,f,23,2022-11-10 08:22:05.219727,results/221110_08.22_data_subj6_block3_trial16.csv,E023,1,200.0,80.0,280.0,True,13.077
6,17,3,False,soft,f,23,2022-11-10 08:22:05.219727,results/221110_08.22_data_subj6_block3_trial17.csv,E066,0,50.0,170.0,220.0,True,12.747
6,17,3,False,soft,f,23,2022-11-10 08:22:05.219727,results/221110_08.22_data_subj6_block3_trial17.csv,E006,1,260.0,20.0,280.0,False,12.747
6,18,3,False,soft,f,23,2022-11-10 08:22:05.219727,results/221110_08.22_data_subj6_block3_trial18.csv,E074,0,110.0,50.0,160.0,True,16.078
6,18,3,False,soft,f,23,2022-11-10 08:22:05.219727,results/221110_08.22_data_subj6_block3_trial18.csv,E022,1,380.0,140.0,520.0,False,16.078
6,19,3,False,soft,f,23,2022-11-10 08:22:05.219727,results/221110_08.22_data_subj6_block3_trial19.csv,E071,0,20.0,260.0,280.0,False,13.63
6,19,3,False,soft,f,23,2022-11-10 08:22:05.219727,results/221110_08.22_data_subj6_block3_trial19.csv,E031,1,140.0,80.0,220.0,True,13.63
6,20,3,False,soft,f,23,2022-11-10 08:22:05.219727,results/221110_08.22_data_subj6_block3_trial20.csv,E001,0,560.0,20.0,580.0,True,13.23
6,20,3,False,soft,f,23,2022-11-10 08:22:05.219727,results/221110_08.22_data_subj6_block3_trial20.csv,E063,1,80.0,200.0,280.0,False,13.23
6,21,3,False,soft,f,23,2022-11-10 08:22:05.219727,results/221110_08.22_data_subj6_block3_trial21.csv,E075,0,20.0,20.0,40.0,True,11.097
6,21,3,False,soft,f,23,2022-11-10 08:22:05.219727,results/221110_08.22_data_subj6_block3_trial21.csv,E072,1,20.0,320.0,340.0,False,11.097
6,22,3,False,soft,f,23,2022-11-10 08:22:05.219727,results/221110_08.22_data_subj6_block3_trial22.csv,E026,0,440.0,200.0,640.0,False,13.397
6,22,3,False,soft,f,23,2022-11-10 08:22:05.219727,results/221110_08.22_data_subj6_block3_trial22.csv,E015,1,560.0,140.0,700.0,True,13.397
6,23,3,False,soft,f,23,2022-11-10 08:22:05.219727,results/221110_08.22_data_subj6_block3_trial23.csv,E018,0,260.0,80.0,340.0,True,11.181
6,23,3,False,soft,f,23,2022-11-10 08:22:05.219727,results/221110_08.22_data_subj6_block3_trial23.csv,E080,1,106.0,610.0,716.0,False,11.181
6,24,3,False,soft,f,23,2022-11-10 08:22:05.219727,results/221110_08.22_data_subj6_block3_trial24.csv,E076,0,50.0,50.0,100.0,True,10.546
6,24,3,False,soft,f,23,2022-11-10 08:22:05.219727,results/221110_08.22_data_subj6_block3_trial24.csv,E011,1,440.0,80.0,520.0,False,10.546
6,0,4,False,soft,f,23,2022-11-10 08:22:05.219727,results/221110_08.22_data_subj6_block4_trial0.csv,E038,0,110.0,80.0,190.0,True,0.834
6,0,4,False,soft,f,23,2022-11-10 08:22:05.219727,results/221110_08.22_data_subj6_block4_trial0.csv,E071,1,20.0,260.0,280.0,False,0.834
6,1,4,False,soft,f,23,2022-11-10 08:22:05.219727,results/221110_08.22_data_subj6_block4_trial1.csv,E059,0,80.0,140.0,220.0,False,12.763
6,1,4,False,soft,f,23,2022-11-10 08:22:05.219727,results/221110_08.22_data_subj6_block4_trial1.csv,E038,1,110.0,80.0,190.0,True,12.763
6,2,4,False,soft,f,23,2022-11-10 08:22:05.219727,results/221110_08.22_data_subj6_block4_trial2.csv,E081,0,107.0,210.0,317.0,True,11.53
6,2,4,False,soft,f,23,2022-11-10 08:22:05.219727,results/221110_08.22_data_subj6_block4_trial2.csv,E048,1,170.0,170.0,340.0,False,11.53
6,3,4,False,soft,f,23,2022-11-10 08:22:05.219727,results/221110_08.22_data_subj6_block4_trial3.csv,E025,0,320.0,140.0,460.0,True,11.962
6,3,4,False,soft,f,23,2022-11-10 08:22:05.219727,results/221110_08.22_data_subj6_block4_trial3.csv,E032,1,440.0,260.0,700.0,False,11.962
6,4,4,False,soft,f,23,2022-11-10 08:22:05.219727,results/221110_08.22_data_subj6_block4_trial4.csv,E036,0,380.0,260.0,640.0,False,15.129
6,4,4,False,soft,f,23,2022-11-10 08:22:05.219727,results/221110_08.22_data_subj6_block4_trial4.csv,E037,1,380.0,260.0,640.0,True,15.129
6,5,4,False,soft,f,23,2022-11-10 08:22:05.219727,results/221110_08.22_data_subj6_block4_trial5.csv,E080,0,106.0,610.0,716.0,False,12.63
6,5,4,False,soft,f,23,2022-11-10 08:22:05.219727,results/221110_08.22_data_subj6_block4_trial5.csv,E042,1,380.0,320.0,700.0,True,12.63
6,6,4,False,soft,f,23,2022-11-10 08:22:05.219727,results/221110_08.22_data_subj6_block4_trial6.csv,E003,0,440.0,20.0,460.0,False,11.165
6,6,4,False,soft,f,23,2022-11-10 08:22:05.219727,results/221110_08.22_data_subj6_block4_trial6.csv,E071,1,20.0,260.0,280.0,True,11.165
6,7,4,False,soft,f,23,2022-11-10 08:22:05.219727,results/221110_08.22_data_subj6_block4_trial7.csv,E036,0,380.0,260.0,640.0,False,13.363
6,7,4,False,soft,f,23,2022-11-10 08:22:05.219727,results/221110_08.22_data_subj6_block4_trial7.csv,E056,1,110.0,170.0,280.0,True,13.363
6,8,4,False,soft,f,23,2022-11-10 08:22:05.219727,results/221110_08.22_data_subj6_block4_trial8.csv,E078,0,80.0,110.0,190.0,True,15.011
6,8,4,False,soft,f,23,2022-11-10 08:22:05.219727,results/221110_08.22_data_subj6_block4_trial8.csv,E036,1,380.0,260.0,640.0,False,15.011
6,9,4,False,soft,f,23,2022-11-10 08:22:05.219727,results/221110_08.22_data_subj6_block4_trial9.csv,E026,0,440.0,200.0,640.0,True,11.58
6,9,4,False,soft,f,23,2022-11-10 08:22:05.219727,results/221110_08.22_data_subj6_block4_trial9.csv,E003,1,440.0,20.0,460.0,False,11.58
6,10,4,False,soft,f,23,2022-11-10 08:22:05.219727,results/221110_08.22_data_subj6_block4_trial10.csv,E067,0,80.0,320.0,400.0,True,11.497
6,10,4,False,soft,f,23,2022-11-10 08:22:05.219727,results/221110_08.22_data_subj6_block4_trial10.csv,E010,1,500.0,80.0,580.0,False,11.497
6,11,4,False,soft,f,23,2022-11-10 08:22:05.219727,results/221110_08.22_data_subj6_block4_trial11.csv,E054,0,200.0,260.0,460.0,False,11.179
6,11,4,False,soft,f,23,2022-11-10 08:22:05.219727,results/221110_08.22_data_subj6_block4_trial11.csv,E033,1,80.0,50.0,130.0,True,11.179
6,12,4,False,soft,f,23,2022-11-10 08:22:05.219727,results/221110_08.22_data_subj6_block4_trial12.csv,E062,0,140.0,320.0,460.0,True,13.459
6,12,4,False,soft,f,23,2022-11-10 08:22:05.219727,results/221110_08.22_data_subj6_block4_trial12.csv,E037,1,200.0,140.0,340.0,False,13.459
6,13,4,False,soft,f,23,2022-11-10 08:22:05.219727,results/221110_08.22_data_subj6_block4_trial13.csv,E074,0,110.0,50.0,160.0,False,11.115
6,13,4,False,soft,f,23,2022-11-10 08:22:05.219727,results/221110_08.22_data_subj6_block4_trial13.csv,E058,1,50.0,80.0,130.0,True,11.115
6,14,4,False,soft,f,23,2022-11-10 08:22:05.219727,results/221110_08.22_data_subj6_block4_trial14.csv,E029,0,380.0,200.0,580.0,True,11.331
6,14,4,False,soft,f,23,2022-11-10 08:22:05.219727,results/221110_08.22_data_subj6_block4_trial14.csv,E028,1,500.0,260.0,760.0,False,11.331
6,15,4,False,soft,f,23,2022-11-10 08:22:05.219727,results/221110_08.22_data_subj6_block4_trial15.csv,E010,0,500.0,80.0,580.0,True,10.63
6,15,4,False,soft,f,23,2022-11-10 08:22:05.219727,results/221110_08.22_data_subj6_block4_trial15.csv,E011,1,500.0,80.0,580.0,False,10.63
6,16,4,False,soft,f,23,2022-11-10 08:22:05.219727,results/221110_08.22_data_subj6_block4_trial16.csv,E052,0,260.0,320.0,580.0,False,10.116
6,16,4,False,soft,f,23,2022-11-10 08:22:05.219727,results/221110_08.22_data_subj6_block4_trial16.csv,E023,1,200.0,80.0,280.0,True,10.116
6,17,4,False,soft,f,23,2022-11-10 08:22:05.219727,results/221110_08.22_data_subj6_block4_trial17.csv,E066,0,50.0,170.0,220.0,True,10.898
6,17,4,False,soft,f,23,2022-11-10 08:22:05.219727,results/221110_08.22_data_subj6_block4_trial17.csv,E006,1,260.0,20.0,280.0,False,10.898
6,18,4,False,soft,f,23,2022-11-10 08:22:05.219727,results/221110_08.22_data_subj6_block4_trial18.csv,E074,0,110.0,50.0,160.0,True,9.331
6,18,4,False,soft,f,23,2022-11-10 08:22:05.219727,results/221110_08.22_data_subj6_block4_trial18.csv,E022,1,380.0,140.0,520.0,False,9.331
6,19,4,False,soft,f,23,2022-11-10 08:22:05.219727,results/221110_08.22_data_subj6_block4_trial19.csv,E071,0,20.0,260.0,280.0,False,12.596
6,19,4,False,soft,f,23,2022-11-10 08:22:05.219727,results/221110_08.22_data_subj6_block4_trial19.csv,E031,1,140.0,80.0,220.0,True,12.596
6,20,4,False,soft,f,23,2022-11-10 08:22:05.219727,results/221110_08.22_data_subj6_block4_trial20.csv,E001,0,560.0,20.0,580.0,True,10.207
6,20,4,False,soft,f,23,2022-11-10 08:22:05.219727,results/221110_08.22_data_subj6_block4_trial20.csv,E063,1,80.0,200.0,280.0,False,10.207
6,21,4,False,soft,f,23,2022-11-10 08:22:05.219727,results/221110_08.22_data_subj6_block4_trial21.csv,E075,0,20.0,20.0,40.0,True,10.797
6,21,4,False,soft,f,23,2022-11-10 08:22:05.219727,results/221110_08.22_data_subj6_block4_trial21.csv,E072,1,20.0,320.0,340.0,False,10.797
6,22,4,False,soft,f,23,2022-11-10 08:22:05.219727,results/221110_08.22_data_subj6_block4_trial22.csv,E026,0,440.0,200.0,640.0,True,10.343
6,22,4,False,soft,f,23,2022-11-10 08:22:05.219727,results/221110_08.22_data_subj6_block4_trial22.csv,E015,1,560.0,140.0,700.0,False,10.343
6,23,4,False,soft,f,23,2022-11-10 08:22:05.219727,results/221110_08.22_data_subj6_block4_trial23.csv,E018,0,260.0,80.0,340.0,True,11.964
6,23,4,False,soft,f,23,2022-11-10 08:22:05.219727,results/221110_08.22_data_subj6_block4_trial23.csv,E080,1,106.0,610.0,716.0,False,11.964
6,24,4,False,soft,f,23,2022-11-10 08:22:05.219727,results/221110_08.22_data_subj6_block4_trial24.csv,E076,0,50.0,50.0,100.0,True,12.746
6,24,4,False,soft,f,23,2022-11-10 08:22:05.219727,results/221110_08.22_data_subj6_block4_trial24.csv,E011,1,440.0,80.0,520.0,False,12.746
7,0,1,False,soft,m,21,2022-11-10 10:41:45.411461,results/221110_10.41_data_subj7_block1_trial0.csv,E057,0,200.0,320.0,520.0,False,9.013
7,0,1,False,soft,m,21,2022-11-10 10:41:45.411461,results/221110_10.41_data_subj7_block1_trial0.csv,E078,1,80.0,110.0,190.0,True,9.013
7,1,1,False,soft,m,21,2022-11-10 10:41:45.411461,results/221110_10.41_data_subj7_block1_trial1.csv,E036,0,380.0,260.0,640.0,False,9.331
7,1,1,False,soft,m,21,2022-11-10 10:41:45.411461,results/221110_10.41_data_subj7_block1_trial1.csv,E059,1,80.0,140.0,220.0,True,9.331
7,2,1,False,soft,m,21,2022-11-10 10:41:45.411461,results/221110_10.41_data_subj7_block1_trial2.csv,E047,0,140.0,140.0,280.0,False,8.164
7,2,1,False,soft,m,21,2022-11-10 10:41:45.411461,results/221110_10.41_data_subj7_block1_trial2.csv,E031,1,140.0,80.0,220.0,True,8.164
7,3,1,False,soft,m,21,2022-11-10 10:41:45.411461,results/221110_10.41_data_subj7_block1_trial3.csv,E067,0,80.0,320.0,400.0,False,9.583
7,3,1,False,soft,m,21,2022-11-10 10:41:45.411461,results/221110_10.41_data_subj7_block1_trial3.csv,E048,1,170.0,170.0,340.0,True,9.583
7,4,1,False,soft,m,21,2022-11-10 10:41:45.411461,results/221110_10.41_data_subj7_block1_trial4.csv,E053,0,110.0,140.0,250.0,False,8.562
7,4,1,False,soft,m,21,2022-11-10 10:41:45.411461,results/221110_10.41_data_subj7_block1_trial4.csv,E033,1,80.0,50.0,130.0,True,8.562
7,5,1,False,soft,m,21,2022-11-10 10:41:45.411461,results/221110_10.41_data_subj7_block1_trial5.csv,E037,0,200.0,140.0,340.0,False,8.581
7,5,1,False,soft,m,21,2022-11-10 10:41:45.411461,results/221110_10.41_data_subj7_block1_trial5.csv,E027,1,170.0,80.0,250.0,True,8.581
7,6,1,False,soft,m,21,2022-11-10 10:41:45.411461,results/221110_10.41_data_subj7_block1_trial6.csv,E002,0,500.0,20.0,520.0,True,7.465
7,6,1,False,soft,m,21,2022-11-10 10:41:45.411461,results/221110_10.41_data_subj7_block1_trial6.csv,E052,1,260.0,320.0,580.0,False,7.465
7,7,1,False,soft,m,21,2022-11-10 10:41:45.411461,results/221110_10.41_data_subj7_block1_trial7.csv,E077,0,110.0,110.0,220.0,True,9.831
7,7,1,False,soft,m,21,2022-11-10 10:41:45.411461,results/221110_10.41_data_subj7_block1_trial7.csv,E041,1,140.0,110.0,250.0,False,9.831
7,8,1,False,soft,m,21,2022-11-10 10:41:45.411461,results/221110_10.41_data_subj7_block1_trial8.csv,E010,0,500.0,80.0,580.0,False,8.764
7,8,1,False,soft,m,21,2022-11-10 10:41:45.411461,results/221110_10.41_data_subj7_block1_trial8.csv,E023,1,200.0,80.0,280.0,True,8.764
7,9,1,False,soft,m,21,2022-11-10 10:41:45.411461,results/221110_10.41_data_subj7_block1_trial9.csv,E024,0,500.0,200.0,700.0,False,8.281
7,9,1,False,soft,m,21,2022-11-10 10:41:45.411461,results/221110_10.41_data_subj7_block1_trial9.csv,E008,1,140.0,20.0,160.0,True,8.281
7,10,1,False,soft,m,21,2022-11-10 10:41:45.411461,results/221110_10.41_data_subj7_block1_trial10.csv,E066,0,50.0,170.0,220.0,True,9.079
7,10,1,False,soft,m,21,2022-11-10 10:41:45.411461,results/221110_10.41_data_subj7_block1_trial10.csv,E044,1,170.0,140.0,310.0,False,9.079
7,11,1,False,soft,m,21,2022-11-10 10:41:45.411461,results/221110_10.41_data_subj7_block1_trial11.csv,E060,0,140.0,260.0,400.0,True,9.331
7,11,1,False,soft,m,21,2022-11-10 10:41:45.411461,results/221110_10.41_data_subj7_block1_trial11.csv,E062,1,140.0,320.0,460.0,False,9.331
7,12,1,False,soft,m,21,2022-11-10 10:41:45.411461,results/221110_10.41_data_subj7_block1_trial12.csv,E045,0,260.0,260.0,520.0,False,8.645
7,12,1,False,soft,m,21,2022-11-10 10:41:45.411461,results/221110_10.41_data_subj7_block1_trial12.csv,E037,1,200.0,140.0,340.0,True,8.645
7,13,1,False,soft,m,21,2022-11-10 10:41:45.411461,results/221110_10.41_data_subj7_block1_trial13.csv,E037,0,200.0,140.0,340.0,False,10.197
7,13,1,False,soft,m,21,2022-11-10 10:41:45.411461,results/221110_10.41_data_subj7_block1_trial13.csv,E020,1,140.0,50.0,190.0,True,10.197
7,14,1,False,soft,m,21,2022-11-10 10:41:45.411461,results/221110_10.41_data_subj7_block1_trial14.csv,E012,0,380.0,80.0,460.0,False,8.584
7,14,1,False,soft,m,21,2022-11-10 10:41:45.411461,results/221110_10.41_data_subj7_block1_trial14.csv,E049,1,80.0,80.0,160.0,True,8.584
7,15,1,False,soft,m,21,2022-11-10 10:41:45.411461,results/221110_10.41_data_subj7_block1_trial15.csv,E002,0,500.0,20.0,520.0,True,8.364
7,15,1,False,soft,m,21,2022-11-10 10:41:45.411461,results/221110_10.41_data_subj7_block1_trial15.csv,E060,1,140.0,260.0,400.0,False,8.364
7,16,1,False,soft,m,21,2022-11-10 10:41:45.411461,results/221110_10.41_data_subj7_block1_trial16.csv,E039,0,440.0,320.0,760.0,False,8.598
7,16,1,False,soft,m,21,2022-11-10 10:41:45.411461,results/221110_10.41_data_subj7_block1_trial16.csv,E033,1,80.0,50.0,130.0,True,8.598
7,17,1,False,soft,m,21,2022-11-10 10:41:45.411461,results/221110_10.41_data_subj7_block1_trial17.csv,E061,0,80.0,170.0,250.0,True,9.031
7,17,1,False,soft,m,21,2022-11-10 10:41:45.411461,results/221110_10.41_data_subj7_block1_trial17.csv,E051,1,140.0,170.0,310.0,False,9.031
7,18,1,False,soft,m,21,2022-11-10 10:41:45.411461,results/221110_10.41_data_subj7_block1_trial18.csv,E062,0,140.0,320.0,460.0,False,8.811
7,18,1,False,soft,m,21,2022-11-10 10:41:45.411461,results/221110_10.41_data_subj7_block1_trial18.csv,E070,1,20.0,200.0,220.0,True,8.811
7,19,1,False,soft,m,21,2022-11-10 10:41:45.411461,results/221110_10.41_data_subj7_block1_trial19.csv,E051,0,140.0,170.0,310.0,False,8.678
7,19,1,False,soft,m,21,2022-11-10 10:41:45.411461,results/221110_10.41_data_subj7_block1_trial19.csv,E059,1,80.0,140.0,220.0,True,8.678
7,20,1,False,soft,m,21,2022-11-10 10:41:45.411461,results/221110_10.41_data_subj7_block1_trial20.csv,E006,0,260.0,20.0,280.0,True,9.715
7,20,1,False,soft,m,21,2022-11-10 10:41:45.411461,results/221110_10.41_data_subj7_block1_trial20.csv,E027,1,170.0,80.0,250.0,False,9.715
7,21,1,False,soft,m,21,2022-11-10 10:41:45.411461,results/221110_10.41_data_subj7_block1_trial21.csv,E048,0,170.0,170.0,340.0,False,8.731
7,21,1,False,soft,m,21,2022-11-10 10:41:45.411461,results/221110_10.41_data_subj7_block1_trial21.csv,E004,1,320.0,20.0,340.0,True,8.731
7,22,1,False,soft,m,21,2022-11-10 10:41:45.411461,results/221110_10.41_data_subj7_block1_trial22.csv,E021,0,560.0,200.0,760.0,False,9.564
7,22,1,False,soft,m,21,2022-11-10 10:41:45.411461,results/221110_10.41_data_subj7_block1_trial22.csv,E022,1,380.0,140.0,520.0,True,9.564
7,23,1,False,soft,m,21,2022-11-10 10:41:45.411461,results/221110_10.41_data_subj7_block1_trial23.csv,E045,0,260.0,260.0,520.0,False,9.584
7,23,1,False,soft,m,21,2022-11-10 10:41:45.411461,results/221110_10.41_data_subj7_block1_trial23.csv,E002,1,500.0,20.0,520.0,True,9.584
7,24,1,False,soft,m,21,2022-11-10 10:41:45.411461,results/221110_10.41_data_subj7_block1_trial24.csv,E064,0,50.0,140.0,190.0,True,8.864
7,24,1,False,soft,m,21,2022-11-10 10:41:45.411461,results/221110_10.41_data_subj7_block1_trial24.csv,E018,1,260.0,80.0,340.0,False,8.864
7,0,2,False,soft,m,21,2022-11-10 10:41:45.411461,results/221110_10.41_data_subj7_block2_trial0.csv,E022,0,380.0,140.0,520.0,True,9.446
7,0,2,False,soft,m,21,2022-11-10 10:41:45.411461,results/221110_10.41_data_subj7_block2_trial0.csv,E015,1,560.0,140.0,700.0,False,9.446
7,1,2,False,soft,m,21,2022-11-10 10:41:45.411461,results/221110_10.41_data_subj7_block2_trial1.csv,E020,0,140.0,50.0,190.0,True,8.811
7,1,2,False,soft,m,21,2022-11-10 10:41:45.411461,results/221110_10.41_data_subj7_block2_trial1.csv,E052,1,260.0,320.0,580.0,False,8.811
7,2,2,False,soft,m,21,2022-11-10 10:41:45.411461,results/221110_10.41_data_subj7_block2_trial2.csv,E026,0,440.0,200.0,640.0,False,8.533
7,2,2,False,soft,m,21,2022-11-10 10:41:45.411461,results/221110_10.41_data_subj7_block2_trial2.csv,E051,1,140.0,170.0,310.0,True,8.533
7,3,2,False,soft,m,21,2022-11-10 10:41:45.411461,results/221110_10.41_data_subj7_block2_trial3.csv,E018,0,260.0,80.0,340.0,False,8.831
7,3,2,False,soft,m,21,2022-11-10 10:41:45.411461,results/221110_10.41_data_subj7_block2_trial3.csv,E047,1,140.0,140.0,280.0,True,8.831
7,4,2,False,soft,m,21,2022-11-10 10:41:45.411461,results/221110_10.41_data_subj7_block2_trial4.csv,E028,0,500.0,260.0,760.0,False,8.897
7,4,2,False,soft,m,21,2022-11-10 10:41:45.411461,results/221110_10.41_data_subj7_block2_trial4.csv,E016,1,500.0,140.0,640.0,True,8.897
7,5,2,False,soft,m,21,2022-11-10 10:41:45.411461,results/221110_10.41_data_subj7_block2_trial5.csv,E064,0,50.0,140.0,190.0,True,7.833
7,5,2,False,soft,m,21,2022-11-10 10:41:45.411461,results/221110_10.41_data_subj7_block2_trial5.csv,E045,1,260.0,260.0,520.0,False,7.833
7,6,2,False,soft,m,21,2022-11-10 10:41:45.411461,results/221110_10.41_data_subj7_block2_trial6.csv,E068,0,20.0,80.0,100.0,True,9.282
7,6,2,False,soft,m,21,2022-11-10 10:41:45.411461,results/221110_10.41_data_subj7_block2_trial6.csv,E066,1,50.0,170.0,220.0,False,9.282
7,7,2,False,soft,m,21,2022-11-10 10:41:45.411461,results/221110_10.41_data_subj7_block2_trial7.csv,E054,0,200.0,260.0,460.0,False,8.794
7,7,2,False,soft,m,21,2022-11-10 10:41:45.411461,results/221110_10.41_data_subj7_block2_trial7.csv,E008,1,140.0,20.0,160.0,True,8.794
7,8,2,False,soft,m,21,2022-11-10 10:41:45.411461,results/221110_10.41_data_subj7_block2_trial8.csv,E079,0,50.0,110.0,160.0,True,8.412
7,8,2,False,soft,m,21,2022-11-10 10:41:45.411461,results/221110_10.41_data_subj7_block2_trial8.csv,E057,1,200.0,320.0,520.0,False,8.412
7,9,2,False,soft,m,21,2022-11-10 10:41:45.411461,results/221110_10.41_data_subj7_block2_trial9.csv,E053,0,110.0,140.0,250.0,True,9.197
7,9,2,False,soft,m,21,2022-11-10 10:41:45.411461,results/221110_10.41_data_subj7_block2_trial9.csv,E050,1,320.0,320.0,640.0,False,9.197
7,10,2,False,soft,m,21,2022-11-10 10:41:45.411461,results/221110_10.41_data_subj7_block2_trial10.csv,E066,0,50.0,170.0,220.0,True,8.731
7,10,2,False,soft,m,21,2022-11-10 10:41:45.411461,results/221110_10.41_data_subj7_block2_trial10.csv,E046,1,200.0,200.0,400.0,False,8.731
7,11,2,False,soft,m,21,2022-11-10 10:41:45.411461,results/221110_10.41_data_subj7_block2_trial11.csv,E070,0,20.0,200.0,220.0,False,8.23
7,11,2,False,soft,m,21,2022-11-10 10:41:45.411461,results/221110_10.41_data_subj7_block2_trial11.csv,E076,1,50.0,50.0,100.0,True,8.23
7,12,2,False,soft,m,21,2022-11-10 10:41:45.411461,results/221110_10.41_data_subj7_block2_trial12.csv,E082,0,22.0,113.0,135.0,True,8.531
7,12,2,False,soft,m,21,2022-11-10 10:41:45.411461,results/221110_10.41_data_subj7_block2_trial12.csv,E077,1,110.0,110.0,220.0,False,8.531
7,13,2,False,soft,m,21,2022-11-10 10:41:45.411461,results/221110_10.41_data_subj7_block2_trial13.csv,E071,0,20.0,260.0,280.0,True,9.233
7,13,2,False,soft,m,21,2022-11-10 10:41:45.411461,results/221110_10.41_data_subj7_block2_trial13.csv,E039,1,440.0,320.0,760.0,False,9.233
7,14,2,False,soft,m,21,2022-11-10 10:41:45.411461,results/221110_10.41_data_subj7_block2_trial14.csv,E022,0,380.0,140.0,520.0,True,9.264
7,14,2,False,soft,m,21,2022-11-10 10:41:45.411461,results/221110_10.41_data_subj7_block2_trial14.csv,E025,1,320.0,140.0,460.0,False,9.264
7,15,2,False,soft,m,21,2022-11-10 10:41:45.411461,results/221110_10.41_data_subj7_block2_trial15.csv,E063,0,80.0,200.0,280.0,True,8.699
7,15,2,False,soft,m,21,2022-11-10 10:41:45.411461,results/221110_10.41_data_subj7_block2_trial15.csv,E035,1,170.0,110.0,280.0,False,8.699
7,16,2,False,soft,m,21,2022-11-10 10:41:45.411461,results/221110_10.41_data_subj7_block2_trial16.csv,E039,0,440.0,320.0,760.0,False,7.981
7,16,2,False,soft,m,21,2022-11-10 10:41:45.411461,results/221110_10.41_data_subj7_block2_trial16.csv,E071,1,20.0,260.0,280.0,True,7.981
7,17,2,False,soft,m,21,2022-11-10 10:41:45.411461,results/221110_10.41_data_subj7_block2_trial17.csv,E061,0,80.0,170.0,250.0,True,7.914
7,17,2,False,soft,m,21,2022-11-10 10:41:45.411461,results/221110_10.41_data_subj7_block2_trial17.csv,E028,1,500.0,260.0,760.0,False,7.914
7,18,2,False,soft,m,21,2022-11-10 10:41:45.411461,results/221110_10.41_data_subj7_block2_trial18.csv,E077,0,110.0,110.0,220.0,False,9.046
7,18,2,False,soft,m,21,2022-11-10 10:41:45.411461,results/221110_10.41_data_subj7_block2_trial18.csv,E059,1,80.0,140.0,220.0,True,9.046
7,19,2,False,soft,m,21,2022-11-10 10:41:45.411461,results/221110_10.41_data_subj7_block2_trial19.csv,E016,0,500.0,140.0,640.0,False,10.905
7,19,2,False,soft,m,21,2022-11-10 10:41:45.411461,results/221110_10.41_data_subj7_block2_trial19.csv,E011,1,440.0,80.0,520.0,True,10.905
7,20,2,False,soft,m,21,2022-11-10 10:41:45.411461,results/221110_10.41_data_subj7_block2_trial20.csv,E011,0,440.0,80.0,520.0,False,8.913
7,20,2,False,soft,m,21,2022-11-10 10:41:45.411461,results/221110_10.41_data_subj7_block2_trial20.csv,E082,1,22.0,113.0,135.0,True,8.913
7,21,2,False,soft,m,21,2022-11-10 10:41:45.411461,results/221110_10.41_data_subj7_block2_trial21.csv,E033,0,80.0,50.0,130.0,True,10.096
7,21,2,False,soft,m,21,2022-11-10 10:41:45.411461,results/221110_10.41_data_subj7_block2_trial21.csv,E038,1,110.0,80.0,190.0,False,10.096
7,22,2,False,soft,m,21,2022-11-10 10:41:45.411461,results/221110_10.41_data_subj7_block2_trial22.csv,E074,0,110.0,50.0,160.0,True,10.317
7,22,2,False,soft,m,21,2022-11-10 10:41:45.411461,results/221110_10.41_data_subj7_block2_trial22.csv,E016,1,500.0,140.0,640.0,False,10.317
7,23,2,False,soft,m,21,2022-11-10 10:41:45.411461,results/221110_10.41_data_subj7_block2_trial23.csv,E002,0,500.0,20.0,520.0,True,8.497
7,23,2,False,soft,m,21,2022-11-10 10:41:45.411461,results/221110_10.41_data_subj7_block2_trial23.csv,E016,1,500.0,140.0,640.0,False,8.497
7,24,2,False,soft,m,21,2022-11-10 10:41:45.411461,results/221110_10.41_data_subj7_block2_trial24.csv,E056,0,110.0,170.0,280.0,False,9.348
7,24,2,False,soft,m,21,2022-11-10 10:41:45.411461,results/221110_10.41_data_subj7_block2_trial24.csv,E008,1,140.0,20.0,160.0,True,9.348
7,0,3,False,soft,m,21,2022-11-10 10:41:45.411461,results/221110_10.41_data_subj7_block3_trial0.csv,E037,0,200.0,140.0,340.0,False,9.912
7,0,3,False,soft,m,21,2022-11-10 10:41:45.411461,results/221110_10.41_data_subj7_block3_trial0.csv,E063,1,80.0,200.0,280.0,True,9.912
7,1,3,False,soft,m,21,2022-11-10 10:41:45.411461,results/221110_10.41_data_subj7_block3_trial1.csv,E083,0,107.0,27.0,134.0,True,9.263
7,1,3,False,soft,m,21,2022-11-10 10:41:45.411461,results/221110_10.41_data_subj7_block3_trial1.csv,E002,1,500.0,20.0,520.0,False,9.263
7,2,3,False,soft,m,21,2022-11-10 10:41:45.411461,results/221110_10.41_data_subj7_block3_trial2.csv,E054,0,200.0,260.0,460.0,True,10.383
7,2,3,False,soft,m,21,2022-11-10 10:41:45.411461,results/221110_10.41_data_subj7_block3_trial2.csv,E005,1,380.0,20.0,400.0,False,10.383
7,3,3,False,soft,m,21,2022-11-10 10:41:45.411461,results/221110_10.41_data_subj7_block3_trial3.csv,E033,0,80.0,50.0,130.0,True,13.346
7,3,3,False,soft,m,21,2022-11-10 10:41:45.411461,results/221110_10.41_data_subj7_block3_trial3.csv,E035,1,170.0,110.0,280.0,False,13.346
7,4,3,False,soft,m,21,2022-11-10 10:41:45.411461,results/221110_10.41_data_subj7_block3_trial4.csv,E030,0,260.0,140.0,400.0,True,9.947
7,4,3,False,soft,m,21,2022-11-10 10:41:45.411461,results/221110_10.41_data_subj7_block3_trial4.csv,E045,1,260.0,260.0,520.0,False,9.947
7,5,3,False,soft,m,21,2022-11-10 10:41:45.411461,results/221110_10.41_data_subj7_block3_trial5.csv,E073,0,797.0,116.0,913.0,False,10.112
7,5,3,False,soft,m,21,2022-11-10 10:41:45.411461,results/221110_10.41_data_subj7_block3_trial5.csv,E016,1,500.0,140.0,640.0,True,10.112
7,6,3,False,soft,m,21,2022-11-10 10:41:45.411461,results/221110_10.41_data_subj7_block3_trial6.csv,E072,0,20.0,320.0,340.0,True,10.896
7,6,3,False,soft,m,21,2022-11-10 10:41:45.411461,results/221110_10.41_data_subj7_block3_trial6.csv,E019,1,440.0,140.0,580.0,False,10.896
7,7,3,False,soft,m,21,2022-11-10 10:41:45.411461,results/221110_10.41_data_subj7_block3_trial7.csv,E015,0,560.0,140.0,700.0,False,10.997
7,7,3,False,soft,m,21,2022-11-10 10:41:45.411461,results/221110_10.41_data_subj7_block3_trial7.csv,E017,1,170.0,50.0,220.0,True,10.997
7,8,3,False,soft,m,21,2022-11-10 10:41:45.411461,results/221110_10.41_data_subj7_block3_trial8.csv,E016,0,500.0,140.0,640.0,False,9.829
7,8,3,False,soft,m,21,2022-11-10 10:41:45.411461,results/221110_10.41_data_subj7_block3_trial8.csv,E079,1,50.0,110.0,160.0,True,9.829
7,9,3,False,soft,m,21,2022-11-10 10:41:45.411461,results/221110_10.41_data_subj7_block3_trial9.csv,E020,0,140.0,50.0,190.0,False,11.68
7,9,3,False,soft,m,21,2022-11-10 10:41:45.411461,results/221110_10.41_data_subj7_block3_trial9.csv,E033,1,80.0,50.0,130.0,True,11.68
7,10,3,False,soft,m,21,2022-11-10 10:41:45.411461,results/221110_10.41_data_subj7_block3_trial10.csv,E034,0,320.0,200.0,520.0,True,11.912
7,10,3,False,soft,m,21,2022-11-10 10:41:45.411461,results/221110_10.41_data_subj7_block3_trial10.csv,E040,1,260.0,200.0,460.0,False,11.912
7,11,3,False,soft,m,21,2022-11-10 10:41:45.411461,results/221110_10.41_data_subj7_block3_trial11.csv,E018,0,260.0,80.0,340.0,False,11.747
7,11,3,False,soft,m,21,2022-11-10 10:41:45.411461,results/221110_10.41_data_subj7_block3_trial11.csv,E017,1,170.0,50.0,220.0,True,11.747
7,12,3,False,soft,m,21,2022-11-10 10:41:45.411461,results/221110_10.41_data_subj7_block3_trial12.csv,E059,0,80.0,140.0,220.0,True,11.33
7,12,3,False,soft,m,21,2022-11-10 10:41:45.411461,results/221110_10.41_data_subj7_block3_trial12.csv,E069,1,20.0,140.0,160.0,False,11.33
7,13,3,False,soft,m,21,2022-11-10 10:41:45.411461,results/221110_10.41_data_subj7_block3_trial13.csv,E046,0,200.0,200.0,400.0,False,12.716
7,13,3,False,soft,m,21,2022-11-10 10:41:45.411461,results/221110_10.41_data_subj7_block3_trial13.csv,E064,1,50.0,140.0,190.0,True,12.716
7,14,3,False,soft,m,21,2022-11-10 10:41:45.411461,results/221110_10.41_data_subj7_block3_trial14.csv,E022,0,380.0,140.0,520.0,True,11.497
7,14,3,False,soft,m,21,2022-11-10 10:41:45.411461,results/221110_10.41_data_subj7_block3_trial14.csv,E028,1,500.0,260.0,760.0,False,11.497
7,15,3,False,soft,m,21,2022-11-10 10:41:45.411461,results/221110_10.41_data_subj7_block3_trial15.csv,E056,0,110.0,170.0,280.0,False,11.545
7,15,3,False,soft,m,21,2022-11-10 10:41:45.411461,results/221110_10.41_data_subj7_block3_trial15.csv,E053,1,110.0,140.0,250.0,True,11.545
7,16,3,False,soft,m,21,2022-11-10 10:41:45.411461,results/221110_10.41_data_subj7_block3_trial16.csv,E021,0,560.0,200.0,760.0,False,12.549
7,16,3,False,soft,m,21,2022-11-10 10:41:45.411461,results/221110_10.41_data_subj7_block3_trial16.csv,E081,1,107.0,210.0,317.0,True,12.549
7,17,3,False,soft,m,21,2022-11-10 10:41:45.411461,results/221110_10.41_data_subj7_block3_trial17.csv,E001,0,560.0,20.0,580.0,True,11.945
7,17,3,False,soft,m,21,2022-11-10 10:41:45.411461,results/221110_10.41_data_subj7_block3_trial17.csv,E050,1,320.0,320.0,640.0,False,11.945
7,18,3,False,soft,m,21,2022-11-10 10:41:45.411461,results/221110_10.41_data_subj7_block3_trial18.csv,E010,0,500.0,80.0,580.0,False,12.381
7,18,3,False,soft,m,21,2022-11-10 10:41:45.411461,results/221110_10.41_data_subj7_block3_trial18.csv,E011,1,440.0,80.0,520.0,True,12.381
7,19,3,False,soft,m,21,2022-11-10 10:41:45.411461,results/221110_10.41_data_subj7_block3_trial19.csv,E026,0,440.0,200.0,640.0,True,12.331
7,19,3,False,soft,m,21,2022-11-10 10:41:45.411461,results/221110_10.41_data_subj7_block3_trial19.csv,E073,1,797.0,116.0,913.0,False,12.331
7,20,3,False,soft,m,21,2022-11-10 10:41:45.411461,results/221110_10.41_data_subj7_block3_trial20.csv,E067,0,80.0,320.0,400.0,True,12.33
7,20,3,False,soft,m,21,2022-11-10 10:41:45.411461,results/221110_10.41_data_subj7_block3_trial20.csv,E029,1,380.0,200.0,580.0,False,12.33
7,21,3,False,soft,m,21,2022-11-10 10:41:45.411461,results/221110_10.41_data_subj7_block3_trial21.csv,E053,0,110.0,140.0,250.0,True,12.165
7,21,3,False,soft,m,21,2022-11-10 10:41:45.411461,results/221110_10.41_data_subj7_block3_trial21.csv,E071,1,20.0,260.0,280.0,False,12.165
7,22,3,False,soft,m,21,2022-11-10 10:41:45.411461,results/221110_10.41_data_subj7_block3_trial22.csv,E052,0,260.0,320.0,580.0,False,12.363
7,22,3,False,soft,m,21,2022-11-10 10:41:45.411461,results/221110_10.41_data_subj7_block3_trial22.csv,E063,1,80.0,200.0,280.0,True,12.363
7,23,3,False,soft,m,21,2022-11-10 10:41:45.411461,results/221110_10.41_data_subj7_block3_trial23.csv,E053,0,110.0,140.0,250.0,True,12.031
7,23,3,False,soft,m,21,2022-11-10 10:41:45.411461,results/221110_10.41_data_subj7_block3_trial23.csv,E039,1,440.0,320.0,760.0,False,12.031
7,24,3,False,soft,m,21,2022-11-10 10:41:45.411461,results/221110_10.41_data_subj7_block3_trial24.csv,E017,0,170.0,50.0,220.0,True,10.43
7,24,3,False,soft,m,21,2022-11-10 10:41:45.411461,results/221110_10.41_data_subj7_block3_trial24.csv,E023,1,200.0,80.0,280.0,False,10.43
7,0,4,False,soft,m,21,2022-11-10 10:41:45.411461,results/221110_10.41_data_subj7_block4_trial0.csv,E037,0,200.0,140.0,340.0,False,9.584
7,0,4,False,soft,m,21,2022-11-10 10:41:45.411461,results/221110_10.41_data_subj7_block4_trial0.csv,E063,1,80.0,200.0,280.0,True,9.584
7,1,4,False,soft,m,21,2022-11-10 10:41:45.411461,results/221110_10.41_data_subj7_block4_trial1.csv,E083,0,107.0,27.0,134.0,True,10.897
7,1,4,False,soft,m,21,2022-11-10 10:41:45.411461,results/221110_10.41_data_subj7_block4_trial1.csv,E002,1,500.0,20.0,520.0,False,10.897
7,2,4,False,soft,m,21,2022-11-10 10:41:45.411461,results/221110_10.41_data_subj7_block4_trial2.csv,E054,0,200.0,260.0,460.0,False,11.235
7,2,4,False,soft,m,21,2022-11-10 10:41:45.411461,results/221110_10.41_data_subj7_block4_trial2.csv,E005,1,380.0,20.0,400.0,True,11.235
7,3,4,False,soft,m,21,2022-11-10 10:41:45.411461,results/221110_10.41_data_subj7_block4_trial3.csv,E033,0,80.0,50.0,130.0,True,11.75
7,3,4,False,soft,m,21,2022-11-10 10:41:45.411461,results/221110_10.41_data_subj7_block4_trial3.csv,E035,1,170.0,110.0,280.0,False,11.75
7,4,4,False,soft,m,21,2022-11-10 10:41:45.411461,results/221110_10.41_data_subj7_block4_trial4.csv,E030,0,260.0,140.0,400.0,True,10.348
7,4,4,False,soft,m,21,2022-11-10 10:41:45.411461,results/221110_10.41_data_subj7_block4_trial4.csv,E045,1,260.0,260.0,520.0,False,10.348
7,5,4,False,soft,m,21,2022-11-10 10:41:45.411461,results/221110_10.41_data_subj7_block4_trial5.csv,E073,0,797.0,116.0,913.0,False,10.848
7,5,4,False,soft,m,21,2022-11-10 10:41:45.411461,results/221110_10.41_data_subj7_block4_trial5.csv,E016,1,500.0,140.0,640.0,True,10.848
7,6,4,False,soft,m,21,2022-11-10 10:41:45.411461,results/221110_10.41_data_subj7_block4_trial6.csv,E072,0,20.0,320.0,340.0,True,12.097
7,6,4,False,soft,m,21,2022-11-10 10:41:45.411461,results/221110_10.41_data_subj7_block4_trial6.csv,E019,1,440.0,140.0,580.0,False,12.097
7,7,4,False,soft,m,21,2022-11-10 10:41:45.411461,results/221110_10.41_data_subj7_block4_trial7.csv,E015,0,560.0,140.0,700.0,False,11.079
7,7,4,False,soft,m,21,2022-11-10 10:41:45.411461,results/221110_10.41_data_subj7_block4_trial7.csv,E017,1,170.0,50.0,220.0,True,11.079
7,8,4,False,soft,m,21,2022-11-10 10:41:45.411461,results/221110_10.41_data_subj7_block4_trial8.csv,E016,0,500.0,140.0,640.0,False,11.761
7,8,4,False,soft,m,21,2022-11-10 10:41:45.411461,results/221110_10.41_data_subj7_block4_trial8.csv,E079,1,50.0,110.0,160.0,True,11.761
7,9,4,False,soft,m,21,2022-11-10 10:41:45.411461,results/221110_10.41_data_subj7_block4_trial9.csv,E020,0,140.0,50.0,190.0,False,10.998
7,9,4,False,soft,m,21,2022-11-10 10:41:45.411461,results/221110_10.41_data_subj7_block4_trial9.csv,E033,1,80.0,50.0,130.0,True,10.998
7,10,4,False,soft,m,21,2022-11-10 10:41:45.411461,results/221110_10.41_data_subj7_block4_trial10.csv,E034,0,320.0,200.0,520.0,True,11.565
7,10,4,False,soft,m,21,2022-11-10 10:41:45.411461,results/221110_10.41_data_subj7_block4_trial10.csv,E040,1,260.0,200.0,460.0,False,11.565
7,11,4,False,soft,m,21,2022-11-10 10:41:45.411461,results/221110_10.41_data_subj7_block4_trial11.csv,E018,0,260.0,80.0,340.0,False,10.762
7,11,4,False,soft,m,21,2022-11-10 10:41:45.411461,results/221110_10.41_data_subj7_block4_trial11.csv,E017,1,170.0,50.0,220.0,True,10.762
7,12,4,False,soft,m,21,2022-11-10 10:41:45.411461,results/221110_10.41_data_subj7_block4_trial12.csv,E059,0,80.0,140.0,220.0,False,11.279
7,12,4,False,soft,m,21,2022-11-10 10:41:45.411461,results/221110_10.41_data_subj7_block4_trial12.csv,E069,1,20.0,140.0,160.0,True,11.279
7,13,4,False,soft,m,21,2022-11-10 10:41:45.411461,results/221110_10.41_data_subj7_block4_trial13.csv,E046,0,200.0,200.0,400.0,False,10.457
7,13,4,False,soft,m,21,2022-11-10 10:41:45.411461,results/221110_10.41_data_subj7_block4_trial13.csv,E064,1,50.0,140.0,190.0,True,10.457
7,14,4,False,soft,m,21,2022-11-10 10:41:45.411461,results/221110_10.41_data_subj7_block4_trial14.csv,E022,0,380.0,140.0,520.0,False,12.946
7,14,4,False,soft,m,21,2022-11-10 10:41:45.411461,results/221110_10.41_data_subj7_block4_trial14.csv,E028,1,500.0,260.0,760.0,True,12.946
7,15,4,False,soft,m,21,2022-11-10 10:41:45.411461,results/221110_10.41_data_subj7_block4_trial15.csv,E056,0,110.0,170.0,280.0,False,11.465
7,15,4,False,soft,m,21,2022-11-10 10:41:45.411461,results/221110_10.41_data_subj7_block4_trial15.csv,E053,1,110.0,140.0,250.0,True,11.465
7,16,4,False,soft,m,21,2022-11-10 10:41:45.411461,results/221110_10.41_data_subj7_block4_trial16.csv,E021,0,560.0,200.0,760.0,False,11.431
7,16,4,False,soft,m,21,2022-11-10 10:41:45.411461,results/221110_10.41_data_subj7_block4_trial16.csv,E081,1,107.0,210.0,317.0,True,11.431
7,17,4,False,soft,m,21,2022-11-10 10:41:45.411461,results/221110_10.41_data_subj7_block4_trial17.csv,E001,0,560.0,20.0,580.0,True,11.549
7,17,4,False,soft,m,21,2022-11-10 10:41:45.411461,results/221110_10.41_data_subj7_block4_trial17.csv,E050,1,320.0,320.0,640.0,False,11.549
7,18,4,False,soft,m,21,2022-11-10 10:41:45.411461,results/221110_10.41_data_subj7_block4_trial18.csv,E010,0,500.0,80.0,580.0,False,10.865
7,18,4,False,soft,m,21,2022-11-10 10:41:45.411461,results/221110_10.41_data_subj7_block4_trial18.csv,E011,1,440.0,80.0,520.0,True,10.865
7,19,4,False,soft,m,21,2022-11-10 10:41:45.411461,results/221110_10.41_data_subj7_block4_trial19.csv,E026,0,440.0,200.0,640.0,False,11.097
7,19,4,False,soft,m,21,2022-11-10 10:41:45.411461,results/221110_10.41_data_subj7_block4_trial19.csv,E073,1,797.0,116.0,913.0,True,11.097
7,20,4,False,soft,m,21,2022-11-10 10:41:45.411461,results/221110_10.41_data_subj7_block4_trial20.csv,E067,0,80.0,320.0,400.0,True,11.862
7,20,4,False,soft,m,21,2022-11-10 10:41:45.411461,results/221110_10.41_data_subj7_block4_trial20.csv,E029,1,380.0,200.0,580.0,False,11.862
7,21,4,False,soft,m,21,2022-11-10 10:41:45.411461,results/221110_10.41_data_subj7_block4_trial21.csv,E053,0,110.0,140.0,250.0,True,11.098
7,21,4,False,soft,m,21,2022-11-10 10:41:45.411461,results/221110_10.41_data_subj7_block4_trial21.csv,E071,1,20.0,260.0,280.0,False,11.098
7,22,4,False,soft,m,21,2022-11-10 10:41:45.411461,results/221110_10.41_data_subj7_block4_trial22.csv,E052,0,260.0,320.0,580.0,False,11.597
7,22,4,False,soft,m,21,2022-11-10 10:41:45.411461,results/221110_10.41_data_subj7_block4_trial22.csv,E063,1,80.0,200.0,280.0,True,11.597
7,23,4,False,soft,m,21,2022-11-10 10:41:45.411461,results/221110_10.41_data_subj7_block4_trial23.csv,E053,0,110.0,140.0,250.0,True,11.083
7,23,4,False,soft,m,21,2022-11-10 10:41:45.411461,results/221110_10.41_data_subj7_block4_trial23.csv,E039,1,440.0,320.0,760.0,False,11.083
7,24,4,False,soft,m,21,2022-11-10 10:41:45.411461,results/221110_10.41_data_subj7_block4_trial24.csv,E017,0,170.0,50.0,220.0,True,12.63
7,24,4,False,soft,m,21,2022-11-10 10:41:45.411461,results/221110_10.41_data_subj7_block4_trial24.csv,E023,1,200.0,80.0,280.0,False,12.63
8,0,1,False,soft,m,21,2022-11-10 14:16:24.653296,results/221110_14.16_data_subj8_block1_trial0.csv,E054,0,200.0,260.0,460.0,False,11.499
8,0,1,False,soft,m,21,2022-11-10 14:16:24.653296,results/221110_14.16_data_subj8_block1_trial0.csv,E081,1,107.0,210.0,317.0,True,11.499
8,1,1,False,soft,m,21,2022-11-10 14:16:24.653296,results/221110_14.16_data_subj8_block1_trial1.csv,E006,0,260.0,20.0,280.0,True,12.315
8,1,1,False,soft,m,21,2022-11-10 14:16:24.653296,results/221110_14.16_data_subj8_block1_trial1.csv,E027,1,170.0,80.0,250.0,False,12.315
8,2,1,False,soft,m,21,2022-11-10 14:16:24.653296,results/221110_14.16_data_subj8_block1_trial2.csv,E076,0,50.0,50.0,100.0,True,10.664
8,2,1,False,soft,m,21,2022-11-10 14:16:24.653296,results/221110_14.16_data_subj8_block1_trial2.csv,E066,1,50.0,170.0,220.0,False,10.664
8,3,1,False,soft,m,21,2022-11-10 14:16:24.653296,results/221110_14.16_data_subj8_block1_trial3.csv,E017,0,170.0,50.0,220.0,False,10.264
8,3,1,False,soft,m,21,2022-11-10 14:16:24.653296,results/221110_14.16_data_subj8_block1_trial3.csv,E002,1,500.0,20.0,520.0,True,10.264
8,4,1,False,soft,m,21,2022-11-10 14:16:24.653296,results/221110_14.16_data_subj8_block1_trial4.csv,E039,0,440.0,320.0,760.0,True,10.847
8,4,1,False,soft,m,21,2022-11-10 14:16:24.653296,results/221110_14.16_data_subj8_block1_trial4.csv,E032,1,440.0,260.0,700.0,False,10.847
8,5,1,False,soft,m,21,2022-11-10 14:16:24.653296,results/221110_14.16_data_subj8_block1_trial5.csv,E076,0,50.0,50.0,100.0,True,11.441
8,5,1,False,soft,m,21,2022-11-10 14:16:24.653296,results/221110_14.16_data_subj8_block1_trial5.csv,E002,1,500.0,20.0,520.0,False,11.441
8,6,1,False,soft,m,21,2022-11-10 14:16:24.653296,results/221110_14.16_data_subj8_block1_trial6.csv,E063,0,80.0,200.0,280.0,False,11.248
8,6,1,False,soft,m,21,2022-11-10 14:16:24.653296,results/221110_14.16_data_subj8_block1_trial6.csv,E064,1,50.0,140.0,190.0,True,11.248
8,7,1,False,soft,m,21,2022-11-10 14:16:24.653296,results/221110_14.16_data_subj8_block1_trial7.csv,E082,0,22.0,113.0,135.0,True,11.029
8,7,1,False,soft,m,21,2022-11-10 14:16:24.653296,results/221110_14.16_data_subj8_block1_trial7.csv,E054,1,200.0,260.0,460.0,False,11.029
8,8,1,False,soft,m,21,2022-11-10 14:16:24.653296,results/221110_14.16_data_subj8_block1_trial8.csv,E059,0,80.0,140.0,220.0,False,10.28
8,8,1,False,soft,m,21,2022-11-10 14:16:24.653296,results/221110_14.16_data_subj8_block1_trial8.csv,E026,1,440.0,200.0,640.0,True,10.28
8,9,1,False,soft,m,21,2022-11-10 14:16:24.653296,results/221110_14.16_data_subj8_block1_trial9.csv,E061,0,80.0,170.0,250.0,True,11.111
8,9,1,False,soft,m,21,2022-11-10 14:16:24.653296,results/221110_14.16_data_subj8_block1_trial9.csv,E026,1,440.0,200.0,640.0,False,11.111
8,10,1,False,soft,m,21,2022-11-10 14:16:24.653296,results/221110_14.16_data_subj8_block1_trial10.csv,E020,0,140.0,50.0,190.0,False,11.297
8,10,1,False,soft,m,21,2022-11-10 14:16:24.653296,results/221110_14.16_data_subj8_block1_trial10.csv,E025,1,320.0,140.0,460.0,True,11.297
8,11,1,False,soft,m,21,2022-11-10 14:16:24.653296,results/221110_14.16_data_subj8_block1_trial11.csv,E025,0,320.0,140.0,460.0,True,10.847
8,11,1,False,soft,m,21,2022-11-10 14:16:24.653296,results/221110_14.16_data_subj8_block1_trial11.csv,E058,1,50.0,80.0,130.0,False,10.847
8,12,1,False,soft,m,21,2022-11-10 14:16:24.653296,results/221110_14.16_data_subj8_block1_trial12.csv,E001,0,560.0,20.0,580.0,True,10.597
8,12,1,False,soft,m,21,2022-11-10 14:16:24.653296,results/221110_14.16_data_subj8_block1_trial12.csv,E046,1,200.0,200.0,400.0,False,10.597
8,13,1,False,soft,m,21,2022-11-10 14:16:24.653296,results/221110_14.16_data_subj8_block1_trial13.csv,E045,0,260.0,260.0,520.0,False,11.464
8,13,1,False,soft,m,21,2022-11-10 14:16:24.653296,results/221110_14.16_data_subj8_block1_trial13.csv,E057,1,200.0,320.0,520.0,True,11.464
8,14,1,False,soft,m,21,2022-11-10 14:16:24.653296,results/221110_14.16_data_subj8_block1_trial14.csv,E048,0,170.0,170.0,340.0,False,10.765
8,14,1,False,soft,m,21,2022-11-10 14:16:24.653296,results/221110_14.16_data_subj8_block1_trial14.csv,E020,1,140.0,50.0,190.0,True,10.765
8,15,1,False,soft,m,21,2022-11-10 14:16:24.653296,results/221110_14.16_data_subj8_block1_trial15.csv,E078,0,80.0,110.0,190.0,True,10.18
8,15,1,False,soft,m,21,2022-11-10 14:16:24.653296,results/221110_14.16_data_subj8_block1_trial15.csv,E060,1,140.0,260.0,400.0,False,10.18
8,16,1,False,soft,m,21,2022-11-10 14:16:24.653296,results/221110_14.16_data_subj8_block1_trial16.csv,E044,0,170.0,140.0,310.0,False,12.23
8,16,1,False,soft,m,21,2022-11-10 14:16:24.653296,results/221110_14.16_data_subj8_block1_trial16.csv,E058,1,50.0,80.0,130.0,True,12.23
8,17,1,False,soft,m,21,2022-11-10 14:16:24.653296,results/221110_14.16_data_subj8_block1_trial17.csv,E035,0,170.0,110.0,280.0,True,9.297
8,17,1,False,soft,m,21,2022-11-10 14:16:24.653296,results/221110_14.16_data_subj8_block1_trial17.csv,E024,1,500.0,200.0,700.0,False,9.297
8,18,1,False,soft,m,21,2022-11-10 14:16:24.653296,results/221110_14.16_data_subj8_block1_trial18.csv,E043,0,320.0,260.0,580.0,False,10.995
8,18,1,False,soft,m,21,2022-11-10 14:16:24.653296,results/221110_14.16_data_subj8_block1_trial18.csv,E041,1,140.0,110.0,250.0,True,10.995
8,19,1,False,soft,m,21,2022-11-10 14:16:24.653296,results/221110_14.16_data_subj8_block1_trial19.csv,E044,0,170.0,140.0,310.0,False,11.479
8,19,1,False,soft,m,21,2022-11-10 14:16:24.653296,results/221110_14.16_data_subj8_block1_trial19.csv,E077,1,110.0,110.0,220.0,True,11.479
8,20,1,False,soft,m,21,2022-11-10 14:16:24.653296,results/221110_14.16_data_subj8_block1_trial20.csv,E075,0,20.0,20.0,40.0,True,9.797
8,20,1,False,soft,m,21,2022-11-10 14:16:24.653296,results/221110_14.16_data_subj8_block1_trial20.csv,E048,1,170.0,170.0,340.0,False,9.797
8,21,1,False,soft,m,21,2022-11-10 14:16:24.653296,results/221110_14.16_data_subj8_block1_trial21.csv,E020,0,140.0,50.0,190.0,False,13.947
8,21,1,False,soft,m,21,2022-11-10 14:16:24.653296,results/221110_14.16_data_subj8_block1_trial21.csv,E079,1,50.0,110.0,160.0,True,13.947
8,22,1,False,soft,m,21,2022-11-10 14:16:24.653296,results/221110_14.16_data_subj8_block1_trial22.csv,E084,0,206.0,113.0,319.0,True,9.996
8,22,1,False,soft,m,21,2022-11-10 14:16:24.653296,results/221110_14.16_data_subj8_block1_trial22.csv,E037,1,200.0,140.0,340.0,False,9.996
8,23,1,False,soft,m,21,2022-11-10 14:16:24.653296,results/221110_14.16_data_subj8_block1_trial23.csv,E034,0,320.0,200.0,520.0,True,10.565
8,23,1,False,soft,m,21,2022-11-10 14:16:24.653296,results/221110_14.16_data_subj8_block1_trial23.csv,E060,1,140.0,260.0,400.0,False,10.565
8,24,1,False,soft,m,21,2022-11-10 14:16:24.653296,results/221110_14.16_data_subj8_block1_trial24.csv,E029,0,380.0,200.0,580.0,False,10.364
8,24,1,False,soft,m,21,2022-11-10 14:16:24.653296,results/221110_14.16_data_subj8_block1_trial24.csv,E031,1,140.0,80.0,220.0,True,10.364
8,0,2,False,soft,m,21,2022-11-10 14:16:24.653296,results/221110_14.16_data_subj8_block2_trial0.csv,E056,0,110.0,170.0,280.0,False,11.03
8,0,2,False,soft,m,21,2022-11-10 14:16:24.653296,results/221110_14.16_data_subj8_block2_trial0.csv,E064,1,50.0,140.0,190.0,True,11.03
8,1,2,False,soft,m,21,2022-11-10 14:16:24.653296,results/221110_14.16_data_subj8_block2_trial1.csv,E050,0,320.0,320.0,640.0,True,10.117
8,1,2,False,soft,m,21,2022-11-10 14:16:24.653296,results/221110_14.16_data_subj8_block2_trial1.csv,E060,1,140.0,260.0,400.0,False,10.117
8,2,2,False,soft,m,21,2022-11-10 14:16:24.653296,results/221110_14.16_data_subj8_block2_trial2.csv,E055,0,140.0,200.0,340.0,False,10.63
8,2,2,False,soft,m,21,2022-11-10 14:16:24.653296,results/221110_14.16_data_subj8_block2_trial2.csv,E068,1,20.0,80.0,100.0,True,10.63
8,3,2,False,soft,m,21,2022-11-10 14:16:24.653296,results/221110_14.16_data_subj8_block2_trial3.csv,E014,0,320.0,80.0,400.0,True,9.797
8,3,2,False,soft,m,21,2022-11-10 14:16:24.653296,results/221110_14.16_data_subj8_block2_trial3.csv,E082,1,22.0,113.0,135.0,False,9.797
8,4,2,False,soft,m,21,2022-11-10 14:16:24.653296,results/221110_14.16_data_subj8_block2_trial4.csv,E076,0,50.0,50.0,100.0,True,9.292
8,4,2,False,soft,m,21,2022-11-10 14:16:24.653296,results/221110_14.16_data_subj8_block2_trial4.csv,E058,1,50.0,80.0,130.0,False,9.292
8,5,2,False,soft,m,21,2022-11-10 14:16:24.653296,results/221110_14.16_data_subj8_block2_trial5.csv,E060,0,140.0,260.0,400.0,False,9.897
8,5,2,False,soft,m,21,2022-11-10 14:16:24.653296,results/221110_14.16_data_subj8_block2_trial5.csv,E078,1,80.0,110.0,190.0,True,9.897
8,6,2,False,soft,m,21,2022-11-10 14:16:24.653296,results/221110_14.16_data_subj8_block2_trial6.csv,E069,0,20.0,140.0,160.0,False,8.813
8,6,2,False,soft,m,21,2022-11-10 14:16:24.653296,results/221110_14.16_data_subj8_block2_trial6.csv,E041,1,140.0,110.0,250.0,True,8.813
8,7,2,False,soft,m,21,2022-11-10 14:16:24.653296,results/221110_14.16_data_subj8_block2_trial7.csv,E055,0,140.0,200.0,340.0,False,9.38
8,7,2,False,soft,m,21,2022-11-10 14:16:24.653296,results/221110_14.16_data_subj8_block2_trial7.csv,E025,1,320.0,140.0,460.0,True,9.38
8,8,2,False,soft,m,21,2022-11-10 14:16:24.653296,results/221110_14.16_data_subj8_block2_trial8.csv,E033,0,80.0,50.0,130.0,True,9.247
8,8,2,False,soft,m,21,2022-11-10 14:16:24.653296,results/221110_14.16_data_subj8_block2_trial8.csv,E062,1,140.0,320.0,460.0,False,9.247
8,9,2,False,soft,m,21,2022-11-10 14:16:24.653296,results/221110_14.16_data_subj8_block2_trial9.csv,E013,0,80.0,20.0,100.0,True,9.33
8,9,2,False,soft,m,21,2022-11-10 14:16:24.653296,results/221110_14.16_data_subj8_block2_trial9.csv,E039,1,440.0,320.0,760.0,False,9.33
8,10,2,False,soft,m,21,2022-11-10 14:16:24.653296,results/221110_14.16_data_subj8_block2_trial10.csv,E024,0,500.0,200.0,700.0,True,9.348
8,10,2,False,soft,m,21,2022-11-10 14:16:24.653296,results/221110_14.16_data_subj8_block2_trial10.csv,E042,1,380.0,320.0,700.0,False,9.348
8,11,2,False,soft,m,21,2022-11-10 14:16:24.653296,results/221110_14.16_data_subj8_block2_trial11.csv,E022,0,380.0,140.0,520.0,True,9.582
8,11,2,False,soft,m,21,2022-11-10 14:16:24.653296,results/221110_14.16_data_subj8_block2_trial11.csv,E050,1,320.0,320.0,640.0,False,9.582
8,12,2,False,soft,m,21,2022-11-10 14:16:24.653296,results/221110_14.16_data_subj8_block2_trial12.csv,E077,0,110.0,110.0,220.0,False,9.06
8,12,2,False,soft,m,21,2022-11-10 14:16:24.653296,results/221110_14.16_data_subj8_block2_trial12.csv,E033,1,80.0,50.0,130.0,True,9.06
8,13,2,False,soft,m,21,2022-11-10 14:16:24.653296,results/221110_14.16_data_subj8_block2_trial13.csv,E063,0,80.0,200.0,280.0,True,9.564
8,13,2,False,soft,m,21,2022-11-10 14:16:24.653296,results/221110_14.16_data_subj8_block2_trial13.csv,E036,1,380.0,260.0,640.0,False,9.564
8,14,2,False,soft,m,21,2022-11-10 14:16:24.653296,results/221110_14.16_data_subj8_block2_trial14.csv,E017,0,170.0,50.0,220.0,False,9.098
8,14,2,False,soft,m,21,2022-11-10 14:16:24.653296,results/221110_14.16_data_subj8_block2_trial14.csv,E014,1,320.0,80.0,400.0,True,9.098
8,15,2,False,soft,m,21,2022-11-10 14:16:24.653296,results/221110_14.16_data_subj8_block2_trial15.csv,E084,0,206.0,113.0,319.0,False,9.897
8,15,2,False,soft,m,21,2022-11-10 14:16:24.653296,results/221110_14.16_data_subj8_block2_trial15.csv,E005,1,380.0,20.0,400.0,True,9.897
8,16,2,False,soft,m,21,2022-11-10 14:16:24.653296,results/221110_14.16_data_subj8_block2_trial16.csv,E015,0,560.0,140.0,700.0,True,11.681
8,16,2,False,soft,m,21,2022-11-10 14:16:24.653296,results/221110_14.16_data_subj8_block2_trial16.csv,E049,1,80.0,80.0,160.0,False,11.681
8,17,2,False,soft,m,21,2022-11-10 14:16:24.653296,results/221110_14.16_data_subj8_block2_trial17.csv,E013,0,80.0,20.0,100.0,True,8.98
8,17,2,False,soft,m,21,2022-11-10 14:16:24.653296,results/221110_14.16_data_subj8_block2_trial17.csv,E082,1,22.0,113.0,135.0,False,8.98
8,18,2,False,soft,m,21,2022-11-10 14:16:24.653296,results/221110_14.16_data_subj8_block2_trial18.csv,E046,0,200.0,200.0,400.0,False,9.93
8,18,2,False,soft,m,21,2022-11-10 14:16:24.653296,results/221110_14.16_data_subj8_block2_trial18.csv,E021,1,560.0,200.0,760.0,True,9.93
8,19,2,False,soft,m,21,2022-11-10 14:16:24.653296,results/221110_14.16_data_subj8_block2_trial19.csv,E025,0,320.0,140.0,460.0,False,9.931
8,19,2,False,soft,m,21,2022-11-10 14:16:24.653296,results/221110_14.16_data_subj8_block2_trial19.csv,E068,1,20.0,80.0,100.0,True,9.931
8,20,2,False,soft,m,21,2022-11-10 14:16:24.653296,results/221110_14.16_data_subj8_block2_trial20.csv,E036,0,380.0,260.0,640.0,False,10.631
8,20,2,False,soft,m,21,2022-11-10 14:16:24.653296,results/221110_14.16_data_subj8_block2_trial20.csv,E009,1,560.0,80.0,640.0,True,10.631
8,21,2,False,soft,m,21,2022-11-10 14:16:24.653296,results/221110_14.16_data_subj8_block2_trial21.csv,E027,0,170.0,80.0,250.0,False,10.248
8,21,2,False,soft,m,21,2022-11-10 14:16:24.653296,results/221110_14.16_data_subj8_block2_trial21.csv,E017,1,170.0,50.0,220.0,True,10.248
8,22,2,False,soft,m,21,2022-11-10 14:16:24.653296,results/221110_14.16_data_subj8_block2_trial22.csv,E033,0,80.0,50.0,130.0,True,9.081
8,22,2,False,soft,m,21,2022-11-10 14:16:24.653296,results/221110_14.16_data_subj8_block2_trial22.csv,E022,1,380.0,140.0,520.0,False,9.081
8,23,2,False,soft,m,21,2022-11-10 14:16:24.653296,results/221110_14.16_data_subj8_block2_trial23.csv,E059,0,80.0,140.0,220.0,False,10.93
8,23,2,False,soft,m,21,2022-11-10 14:16:24.653296,results/221110_14.16_data_subj8_block2_trial23.csv,E040,1,260.0,200.0,460.0,True,10.93
8,24,2,False,soft,m,21,2022-11-10 14:16:24.653296,results/221110_14.16_data_subj8_block2_trial24.csv,E039,0,440.0,320.0,760.0,False,12.912
8,24,2,False,soft,m,21,2022-11-10 14:16:24.653296,results/221110_14.16_data_subj8_block2_trial24.csv,E072,1,20.0,320.0,340.0,True,12.912
8,0,3,False,soft,m,21,2022-11-10 14:16:24.653296,results/221110_14.16_data_subj8_block3_trial0.csv,E030,0,260.0,140.0,400.0,True,0.734
8,0,3,False,soft,m,21,2022-11-10 14:16:24.653296,results/221110_14.16_data_subj8_block3_trial0.csv,E030,1,260.0,140.0,400.0,False,0.734
8,1,3,False,soft,m,21,2022-11-10 14:16:24.653296,results/221110_14.16_data_subj8_block3_trial1.csv,E079,0,50.0,110.0,160.0,True,9.531
8,1,3,False,soft,m,21,2022-11-10 14:16:24.653296,results/221110_14.16_data_subj8_block3_trial1.csv,E056,1,110.0,170.0,280.0,False,9.531
8,2,3,False,soft,m,21,2022-11-10 14:16:24.653296,results/221110_14.16_data_subj8_block3_trial2.csv,E037,0,200.0,140.0,340.0,True,9.081
8,2,3,False,soft,m,21,2022-11-10 14:16:24.653296,results/221110_14.16_data_subj8_block3_trial2.csv,E045,1,260.0,260.0,520.0,False,9.081
8,3,3,False,soft,m,21,2022-11-10 14:16:24.653296,results/221110_14.16_data_subj8_block3_trial3.csv,E005,0,380.0,20.0,400.0,True,9.047
8,3,3,False,soft,m,21,2022-11-10 14:16:24.653296,results/221110_14.16_data_subj8_block3_trial3.csv,E044,1,170.0,140.0,310.0,False,9.047
8,4,3,False,soft,m,21,2022-11-10 14:16:24.653296,results/221110_14.16_data_subj8_block3_trial4.csv,E009,0,560.0,80.0,640.0,True,9.796
8,4,3,False,soft,m,21,2022-11-10 14:16:24.653296,results/221110_14.16_data_subj8_block3_trial4.csv,E030,1,260.0,140.0,400.0,False,9.796
8,5,3,False,soft,m,21,2022-11-10 14:16:24.653296,results/221110_14.16_data_subj8_block3_trial5.csv,E076,0,50.0,50.0,100.0,False,9.264
8,5,3,False,soft,m,21,2022-11-10 14:16:24.653296,results/221110_14.16_data_subj8_block3_trial5.csv,E005,1,380.0,20.0,400.0,True,9.264
8,6,3,False,soft,m,21,2022-11-10 14:16:24.653296,results/221110_14.16_data_subj8_block3_trial6.csv,E081,0,107.0,210.0,317.0,False,8.831
8,6,3,False,soft,m,21,2022-11-10 14:16:24.653296,results/221110_14.16_data_subj8_block3_trial6.csv,E046,1,200.0,200.0,400.0,True,8.831
8,7,3,False,soft,m,21,2022-11-10 14:16:24.653296,results/221110_14.16_data_subj8_block3_trial7.csv,E017,0,170.0,50.0,220.0,True,8.039
8,7,3,False,soft,m,21,2022-11-10 14:16:24.653296,results/221110_14.16_data_subj8_block3_trial7.csv,E060,1,140.0,260.0,400.0,False,8.039
8,8,3,False,soft,m,21,2022-11-10 14:16:24.653296,results/221110_14.16_data_subj8_block3_trial8.csv,E006,0,260.0,20.0,280.0,True,9.464
8,8,3,False,soft,m,21,2022-11-10 14:16:24.653296,results/221110_14.16_data_subj8_block3_trial8.csv,E056,1,110.0,170.0,280.0,False,9.464
8,9,3,False,soft,m,21,2022-11-10 14:16:24.653296,results/221110_14.16_data_subj8_block3_trial9.csv,E039,0,440.0,320.0,760.0,False,10.38
8,9,3,False,soft,m,21,2022-11-10 14:16:24.653296,results/221110_14.16_data_subj8_block3_trial9.csv,E029,1,380.0,200.0,580.0,True,10.38
8,10,3,False,soft,m,21,2022-11-10 14:16:24.653296,results/221110_14.16_data_subj8_block3_trial10.csv,E041,0,140.0,110.0,250.0,False,8.365
8,10,3,False,soft,m,21,2022-11-10 14:16:24.653296,results/221110_14.16_data_subj8_block3_trial10.csv,E083,1,107.0,27.0,134.0,True,8.365
8,11,3,False,soft,m,21,2022-11-10 14:16:24.653296,results/221110_14.16_data_subj8_block3_trial11.csv,E002,0,500.0,20.0,520.0,True,7.895
8,11,3,False,soft,m,21,2022-11-10 14:16:24.653296,results/221110_14.16_data_subj8_block3_trial11.csv,E067,1,80.0,320.0,400.0,False,7.895
8,12,3,False,soft,m,21,2022-11-10 14:16:24.653296,results/221110_14.16_data_subj8_block3_trial12.csv,E017,0,170.0,50.0,220.0,True,7.598
8,12,3,False,soft,m,21,2022-11-10 14:16:24.653296,results/221110_14.16_data_subj8_block3_trial12.csv,E034,1,320.0,200.0,520.0,False,7.598
8,13,3,False,soft,m,21,2022-11-10 14:16:24.653296,results/221110_14.16_data_subj8_block3_trial13.csv,E022,0,380.0,140.0,520.0,True,7.48
8,13,3,False,soft,m,21,2022-11-10 14:16:24.653296,results/221110_14.16_data_subj8_block3_trial13.csv,E027,1,170.0,80.0,250.0,False,7.48
8,14,3,False,soft,m,21,2022-11-10 14:16:24.653296,results/221110_14.16_data_subj8_block3_trial14.csv,E014,0,320.0,80.0,400.0,False,10.13
8,14,3,False,soft,m,21,2022-11-10 14:16:24.653296,results/221110_14.16_data_subj8_block3_trial14.csv,E018,1,260.0,80.0,340.0,True,10.13
8,15,3,False,soft,m,21,2022-11-10 14:16:24.653296,results/221110_14.16_data_subj8_block3_trial15.csv,E069,0,20.0,140.0,160.0,False,9.297
8,15,3,False,soft,m,21,2022-11-10 14:16:24.653296,results/221110_14.16_data_subj8_block3_trial15.csv,E024,1,500.0,200.0,700.0,True,9.297
8,16,3,False,soft,m,21,2022-11-10 14:16:24.653296,results/221110_14.16_data_subj8_block3_trial16.csv,E048,0,170.0,170.0,340.0,True,8.797
8,16,3,False,soft,m,21,2022-11-10 14:16:24.653296,results/221110_14.16_data_subj8_block3_trial16.csv,E054,1,200.0,260.0,460.0,False,8.797
8,17,3,False,soft,m,21,2022-11-10 14:16:24.653296,results/221110_14.16_data_subj8_block3_trial17.csv,E002,0,500.0,20.0,520.0,True,9.313
8,17,3,False,soft,m,21,2022-11-10 14:16:24.653296,results/221110_14.16_data_subj8_block3_trial17.csv,E003,1,440.0,20.0,460.0,False,9.313
8,18,3,False,soft,m,21,2022-11-10 14:16:24.653296,results/221110_14.16_data_subj8_block3_trial18.csv,E037,0,200.0,140.0,340.0,True,10.164
8,18,3,False,soft,m,21,2022-11-10 14:16:24.653296,results/221110_14.16_data_subj8_block3_trial18.csv,E063,1,80.0,200.0,280.0,False,10.164
8,19,3,False,soft,m,21,2022-11-10 14:16:24.653296,results/221110_14.16_data_subj8_block3_trial19.csv,E004,0,320.0,20.0,340.0,True,8.131
8,19,3,False,soft,m,21,2022-11-10 14:16:24.653296,results/221110_14.16_data_subj8_block3_trial19.csv,E024,1,500.0,200.0,700.0,False,8.131
8,20,3,False,soft,m,21,2022-11-10 14:16:24.653296,results/221110_14.16_data_subj8_block3_trial20.csv,E020,0,140.0,50.0,190.0,False,8.947
8,20,3,False,soft,m,21,2022-11-10 14:16:24.653296,results/221110_14.16_data_subj8_block3_trial20.csv,E001,1,560.0,20.0,580.0,True,8.947
8,21,3,False,soft,m,21,2022-11-10 14:16:24.653296,results/221110_14.16_data_subj8_block3_trial21.csv,E044,0,170.0,140.0,310.0,False,9.674
8,21,3,False,soft,m,21,2022-11-10 14:16:24.653296,results/221110_14.16_data_subj8_block3_trial21.csv,E074,1,110.0,50.0,160.0,True,9.674
8,22,3,False,soft,m,21,2022-11-10 14:16:24.653296,results/221110_14.16_data_subj8_block3_trial22.csv,E040,0,260.0,200.0,460.0,False,10.097
8,22,3,False,soft,m,21,2022-11-10 14:16:24.653296,results/221110_14.16_data_subj8_block3_trial22.csv,E082,1,22.0,113.0,135.0,True,10.097
8,23,3,False,soft,m,21,2022-11-10 14:16:24.653296,results/221110_14.16_data_subj8_block3_trial23.csv,E053,0,110.0,140.0,250.0,False,9.396
8,23,3,False,soft,m,21,2022-11-10 14:16:24.653296,results/221110_14.16_data_subj8_block3_trial23.csv,E037,1,200.0,140.0,340.0,True,9.396
8,24,3,False,soft,m,21,2022-11-10 14:16:24.653296,results/221110_14.16_data_subj8_block3_trial24.csv,E028,0,500.0,260.0,760.0,False,8.863
8,24,3,False,soft,m,21,2022-11-10 14:16:24.653296,results/221110_14.16_data_subj8_block3_trial24.csv,E025,1,320.0,140.0,460.0,True,8.863
8,0,4,False,soft,m,21,2022-11-10 14:16:24.653296,results/221110_14.16_data_subj8_block4_trial0.csv,E030,0,260.0,140.0,400.0,True,1.566
8,0,4,False,soft,m,21,2022-11-10 14:16:24.653296,results/221110_14.16_data_subj8_block4_trial0.csv,E030,1,260.0,140.0,400.0,False,1.566
8,1,4,False,soft,m,21,2022-11-10 14:16:24.653296,results/221110_14.16_data_subj8_block4_trial1.csv,E079,0,50.0,110.0,160.0,True,9.799
8,1,4,False,soft,m,21,2022-11-10 14:16:24.653296,results/221110_14.16_data_subj8_block4_trial1.csv,E056,1,110.0,170.0,280.0,False,9.799
8,2,4,False,soft,m,21,2022-11-10 14:16:24.653296,results/221110_14.16_data_subj8_block4_trial2.csv,E037,0,200.0,140.0,340.0,True,9.663
8,2,4,False,soft,m,21,2022-11-10 14:16:24.653296,results/221110_14.16_data_subj8_block4_trial2.csv,E045,1,260.0,260.0,520.0,False,9.663
8,3,4,False,soft,m,21,2022-11-10 14:16:24.653296,results/221110_14.16_data_subj8_block4_trial3.csv,E005,0,380.0,20.0,400.0,True,7.425
8,3,4,False,soft,m,21,2022-11-10 14:16:24.653296,results/221110_14.16_data_subj8_block4_trial3.csv,E044,1,170.0,140.0,310.0,False,7.425
8,4,4,False,soft,m,21,2022-11-10 14:16:24.653296,results/221110_14.16_data_subj8_block4_trial4.csv,E009,0,560.0,80.0,640.0,True,8.431
8,4,4,False,soft,m,21,2022-11-10 14:16:24.653296,results/221110_14.16_data_subj8_block4_trial4.csv,E030,1,260.0,140.0,400.0,False,8.431
8,5,4,False,soft,m,21,2022-11-10 14:16:24.653296,results/221110_14.16_data_subj8_block4_trial5.csv,E076,0,50.0,50.0,100.0,True,9.148
8,5,4,False,soft,m,21,2022-11-10 14:16:24.653296,results/221110_14.16_data_subj8_block4_trial5.csv,E005,1,380.0,20.0,400.0,False,9.148
8,6,4,False,soft,m,21,2022-11-10 14:16:24.653296,results/221110_14.16_data_subj8_block4_trial6.csv,E081,0,107.0,210.0,317.0,False,8.631
8,6,4,False,soft,m,21,2022-11-10 14:16:24.653296,results/221110_14.16_data_subj8_block4_trial6.csv,E046,1,200.0,200.0,400.0,True,8.631
8,7,4,False,soft,m,21,2022-11-10 14:16:24.653296,results/221110_14.16_data_subj8_block4_trial7.csv,E017,0,170.0,50.0,220.0,True,7.314
8,7,4,False,soft,m,21,2022-11-10 14:16:24.653296,results/221110_14.16_data_subj8_block4_trial7.csv,E060,1,140.0,260.0,400.0,False,7.314
8,8,4,False,soft,m,21,2022-11-10 14:16:24.653296,results/221110_14.16_data_subj8_block4_trial8.csv,E006,0,260.0,20.0,280.0,True,6.711
8,8,4,False,soft,m,21,2022-11-10 14:16:24.653296,results/221110_14.16_data_subj8_block4_trial8.csv,E056,1,110.0,170.0,280.0,False,6.711
8,9,4,False,soft,m,21,2022-11-10 14:16:24.653296,results/221110_14.16_data_subj8_block4_trial9.csv,E039,0,440.0,320.0,760.0,False,9.83
8,9,4,False,soft,m,21,2022-11-10 14:16:24.653296,results/221110_14.16_data_subj8_block4_trial9.csv,E029,1,380.0,200.0,580.0,True,9.83
8,10,4,False,soft,m,21,2022-11-10 14:16:24.653296,results/221110_14.16_data_subj8_block4_trial10.csv,E041,0,140.0,110.0,250.0,True,10.131
8,10,4,False,soft,m,21,2022-11-10 14:16:24.653296,results/221110_14.16_data_subj8_block4_trial10.csv,E083,1,107.0,27.0,134.0,False,10.131
8,11,4,False,soft,m,21,2022-11-10 14:16:24.653296,results/221110_14.16_data_subj8_block4_trial11.csv,E002,0,500.0,20.0,520.0,True,9.082
8,11,4,False,soft,m,21,2022-11-10 14:16:24.653296,results/221110_14.16_data_subj8_block4_trial11.csv,E067,1,80.0,320.0,400.0,False,9.082
8,12,4,False,soft,m,21,2022-11-10 14:16:24.653296,results/221110_14.16_data_subj8_block4_trial12.csv,E017,0,170.0,50.0,220.0,True,9.215
8,12,4,False,soft,m,21,2022-11-10 14:16:24.653296,results/221110_14.16_data_subj8_block4_trial12.csv,E034,1,320.0,200.0,520.0,False,9.215
8,13,4,False,soft,m,21,2022-11-10 14:16:24.653296,results/221110_14.16_data_subj8_block4_trial13.csv,E022,0,380.0,140.0,520.0,False,9.564
8,13,4,False,soft,m,21,2022-11-10 14:16:24.653296,results/221110_14.16_data_subj8_block4_trial13.csv,E027,1,170.0,80.0,250.0,True,9.564
8,14,4,False,soft,m,21,2022-11-10 14:16:24.653296,results/221110_14.16_data_subj8_block4_trial14.csv,E014,0,320.0,80.0,400.0,True,7.816
8,14,4,False,soft,m,21,2022-11-10 14:16:24.653296,results/221110_14.16_data_subj8_block4_trial14.csv,E018,1,260.0,80.0,340.0,False,7.816
8,15,4,False,soft,m,21,2022-11-10 14:16:24.653296,results/221110_14.16_data_subj8_block4_trial15.csv,E069,0,20.0,140.0,160.0,True,9.945
8,15,4,False,soft,m,21,2022-11-10 14:16:24.653296,results/221110_14.16_data_subj8_block4_trial15.csv,E024,1,500.0,200.0,700.0,False,9.945
8,16,4,False,soft,m,21,2022-11-10 14:16:24.653296,results/221110_14.16_data_subj8_block4_trial16.csv,E048,0,170.0,170.0,340.0,True,7.998
8,16,4,False,soft,m,21,2022-11-10 14:16:24.653296,results/221110_14.16_data_subj8_block4_trial16.csv,E054,1,200.0,260.0,460.0,False,7.998
8,17,4,False,soft,m,21,2022-11-10 14:16:24.653296,results/221110_14.16_data_subj8_block4_trial17.csv,E002,0,500.0,20.0,520.0,False,7.88
8,17,4,False,soft,m,21,2022-11-10 14:16:24.653296,results/221110_14.16_data_subj8_block4_trial17.csv,E003,1,440.0,20.0,460.0,True,7.88
8,18,4,False,soft,m,21,2022-11-10 14:16:24.653296,results/221110_14.16_data_subj8_block4_trial18.csv,E037,0,200.0,140.0,340.0,True,8.331
8,18,4,False,soft,m,21,2022-11-10 14:16:24.653296,results/221110_14.16_data_subj8_block4_trial18.csv,E063,1,80.0,200.0,280.0,False,8.331
8,19,4,False,soft,m,21,2022-11-10 14:16:24.653296,results/221110_14.16_data_subj8_block4_trial19.csv,E004,0,320.0,20.0,340.0,True,8.564
8,19,4,False,soft,m,21,2022-11-10 14:16:24.653296,results/221110_14.16_data_subj8_block4_trial19.csv,E024,1,500.0,200.0,700.0,False,8.564
8,20,4,False,soft,m,21,2022-11-10 14:16:24.653296,results/221110_14.16_data_subj8_block4_trial20.csv,E020,0,140.0,50.0,190.0,False,9.698
8,20,4,False,soft,m,21,2022-11-10 14:16:24.653296,results/221110_14.16_data_subj8_block4_trial20.csv,E001,1,560.0,20.0,580.0,True,9.698
8,21,4,False,soft,m,21,2022-11-10 14:16:24.653296,results/221110_14.16_data_subj8_block4_trial21.csv,E044,0,170.0,140.0,310.0,False,8.38
8,21,4,False,soft,m,21,2022-11-10 14:16:24.653296,results/221110_14.16_data_subj8_block4_trial21.csv,E074,1,110.0,50.0,160.0,True,8.38
8,22,4,False,soft,m,21,2022-11-10 14:16:24.653296,results/221110_14.16_data_subj8_block4_trial22.csv,E040,0,260.0,200.0,460.0,False,9.547
8,22,4,False,soft,m,21,2022-11-10 14:16:24.653296,results/221110_14.16_data_subj8_block4_trial22.csv,E082,1,22.0,113.0,135.0,True,9.547
8,23,4,False,soft,m,21,2022-11-10 14:16:24.653296,results/221110_14.16_data_subj8_block4_trial23.csv,E053,0,110.0,140.0,250.0,True,8.248
8,23,4,False,soft,m,21,2022-11-10 14:16:24.653296,results/221110_14.16_data_subj8_block4_trial23.csv,E037,1,200.0,140.0,340.0,False,8.248
8,24,4,False,soft,m,21,2022-11-10 14:16:24.653296,results/221110_14.16_data_subj8_block4_trial24.csv,E028,0,500.0,260.0,760.0,False,8.498
8,24,4,False,soft,m,21,2022-11-10 14:16:24.653296,results/221110_14.16_data_subj8_block4_trial24.csv,E025,1,320.0,140.0,460.0,True,8.498
9,0,1,False,rug,f,20,2022-11-15 10:24:14.731452,results/221115_10.24_data_subj9_block1_trial0.csv,E042,0,380.0,320.0,700.0,True,8.264
9,0,1,False,rug,f,20,2022-11-15 10:24:14.731452,results/221115_10.24_data_subj9_block1_trial0.csv,E067,1,80.0,320.0,400.0,False,8.264
9,1,1,False,rug,f,20,2022-11-15 10:24:14.731452,results/221115_10.24_data_subj9_block1_trial1.csv,E076,0,50.0,50.0,100.0,True,7.165
9,1,1,False,rug,f,20,2022-11-15 10:24:14.731452,results/221115_10.24_data_subj9_block1_trial1.csv,E059,1,80.0,140.0,220.0,False,7.165
9,2,1,False,rug,f,20,2022-11-15 10:24:14.731452,results/221115_10.24_data_subj9_block1_trial2.csv,E064,0,50.0,140.0,190.0,True,7.116
9,2,1,False,rug,f,20,2022-11-15 10:24:14.731452,results/221115_10.24_data_subj9_block1_trial2.csv,E075,1,20.0,20.0,40.0,False,7.116
9,3,1,False,rug,f,20,2022-11-15 10:24:14.731452,results/221115_10.24_data_subj9_block1_trial3.csv,E022,0,380.0,140.0,520.0,False,7.149
9,3,1,False,rug,f,20,2022-11-15 10:24:14.731452,results/221115_10.24_data_subj9_block1_trial3.csv,E021,1,560.0,200.0,760.0,True,7.149
9,4,1,False,rug,f,20,2022-11-15 10:24:14.731452,results/221115_10.24_data_subj9_block1_trial4.csv,E019,0,440.0,140.0,580.0,False,5.896
9,4,1,False,rug,f,20,2022-11-15 10:24:14.731452,results/221115_10.24_data_subj9_block1_trial4.csv,E011,1,440.0,80.0,520.0,True,5.896
9,5,1,False,rug,f,20,2022-11-15 10:24:14.731452,results/221115_10.24_data_subj9_block1_trial5.csv,E027,0,170.0,80.0,250.0,False,7.114
9,5,1,False,rug,f,20,2022-11-15 10:24:14.731452,results/221115_10.24_data_subj9_block1_trial5.csv,E057,1,200.0,320.0,520.0,True,7.114
9,6,1,False,rug,f,20,2022-11-15 10:24:14.731452,results/221115_10.24_data_subj9_block1_trial6.csv,E026,0,440.0,200.0,640.0,True,5.748
9,6,1,False,rug,f,20,2022-11-15 10:24:14.731452,results/221115_10.24_data_subj9_block1_trial6.csv,E014,1,320.0,80.0,400.0,False,5.748
9,7,1,False,rug,f,20,2022-11-15 10:24:14.731452,results/221115_10.24_data_subj9_block1_trial7.csv,E078,0,80.0,110.0,190.0,False,4.949
9,7,1,False,rug,f,20,2022-11-15 10:24:14.731452,results/221115_10.24_data_subj9_block1_trial7.csv,E040,1,260.0,200.0,460.0,True,4.949
9,8,1,False,rug,f,20,2022-11-15 10:24:14.731452,results/221115_10.24_data_subj9_block1_trial8.csv,E001,0,560.0,20.0,580.0,True,6.498
9,8,1,False,rug,f,20,2022-11-15 10:24:14.731452,results/221115_10.24_data_subj9_block1_trial8.csv,E058,1,50.0,80.0,130.0,False,6.498
9,9,1,False,rug,f,20,2022-11-15 10:24:14.731452,results/221115_10.24_data_subj9_block1_trial9.csv,E032,0,440.0,260.0,700.0,True,6.115
9,9,1,False,rug,f,20,2022-11-15 10:24:14.731452,results/221115_10.24_data_subj9_block1_trial9.csv,E065,1,80.0,260.0,340.0,False,6.115
9,10,1,False,rug,f,20,2022-11-15 10:24:14.731452,results/221115_10.24_data_subj9_block1_trial10.csv,E021,0,560.0,200.0,760.0,True,5.598
9,10,1,False,rug,f,20,2022-11-15 10:24:14.731452,results/221115_10.24_data_subj9_block1_trial10.csv,E046,1,200.0,200.0,400.0,False,5.598
9,11,1,False,rug,f,20,2022-11-15 10:24:14.731452,results/221115_10.24_data_subj9_block1_trial11.csv,E024,0,500.0,200.0,700.0,True,5.478
9,11,1,False,rug,f,20,2022-11-15 10:24:14.731452,results/221115_10.24_data_subj9_block1_trial11.csv,E072,1,20.0,320.0,340.0,False,5.478
9,12,1,False,rug,f,20,2022-11-15 10:24:14.731452,results/221115_10.24_data_subj9_block1_trial12.csv,E060,0,140.0,260.0,400.0,True,5.984
9,12,1,False,rug,f,20,2022-11-15 10:24:14.731452,results/221115_10.24_data_subj9_block1_trial12.csv,E046,1,200.0,200.0,400.0,False,5.984
9,13,1,False,rug,f,20,2022-11-15 10:24:14.731452,results/221115_10.24_data_subj9_block1_trial13.csv,E028,0,500.0,260.0,760.0,True,6.315
9,13,1,False,rug,f,20,2022-11-15 10:24:14.731452,results/221115_10.24_data_subj9_block1_trial13.csv,E027,1,170.0,80.0,250.0,False,6.315
9,14,1,False,rug,f,20,2022-11-15 10:24:14.731452,results/221115_10.24_data_subj9_block1_trial14.csv,E033,0,80.0,50.0,130.0,False,6.748
9,14,1,False,rug,f,20,2022-11-15 10:24:14.731452,results/221115_10.24_data_subj9_block1_trial14.csv,E037,1,200.0,140.0,340.0,True,6.748
9,15,1,False,rug,f,20,2022-11-15 10:24:14.731452,results/221115_10.24_data_subj9_block1_trial15.csv,E059,0,80.0,140.0,220.0,False,6.18
9,15,1,False,rug,f,20,2022-11-15 10:24:14.731452,results/221115_10.24_data_subj9_block1_trial15.csv,E054,1,200.0,260.0,460.0,True,6.18
9,16,1,False,rug,f,20,2022-11-15 10:24:14.731452,results/221115_10.24_data_subj9_block1_trial16.csv,E040,0,260.0,200.0,460.0,True,5.848
9,16,1,False,rug,f,20,2022-11-15 10:24:14.731452,results/221115_10.24_data_subj9_block1_trial16.csv,E064,1,50.0,140.0,190.0,False,5.848
9,17,1,False,rug,f,20,2022-11-15 10:24:14.731452,results/221115_10.24_data_subj9_block1_trial17.csv,E010,0,500.0,80.0,580.0,False,6.566
9,17,1,False,rug,f,20,2022-11-15 10:24:14.731452,results/221115_10.24_data_subj9_block1_trial17.csv,E042,1,380.0,320.0,700.0,True,6.566
9,18,1,False,rug,f,20,2022-11-15 10:24:14.731452,results/221115_10.24_data_subj9_block1_trial18.csv,E059,0,80.0,140.0,220.0,False,6.165
9,18,1,False,rug,f,20,2022-11-15 10:24:14.731452,results/221115_10.24_data_subj9_block1_trial18.csv,E070,1,20.0,200.0,220.0,True,6.165
9,19,1,False,rug,f,20,2022-11-15 10:24:14.731452,results/221115_10.24_data_subj9_block1_trial19.csv,E044,0,170.0,140.0,310.0,True,5.915
9,19,1,False,rug,f,20,2022-11-15 10:24:14.731452,results/221115_10.24_data_subj9_block1_trial19.csv,E009,1,560.0,80.0,640.0,False,5.915
9,20,1,False,rug,f,20,2022-11-15 10:24:14.731452,results/221115_10.24_data_subj9_block1_trial20.csv,E018,0,260.0,80.0,340.0,True,6.618
9,20,1,False,rug,f,20,2022-11-15 10:24:14.731452,results/221115_10.24_data_subj9_block1_trial20.csv,E031,1,140.0,80.0,220.0,False,6.618
9,21,1,False,rug,f,20,2022-11-15 10:24:14.731452,results/221115_10.24_data_subj9_block1_trial21.csv,E003,0,440.0,20.0,460.0,True,5.732
9,21,1,False,rug,f,20,2022-11-15 10:24:14.731452,results/221115_10.24_data_subj9_block1_trial21.csv,E068,1,20.0,80.0,100.0,False,5.732
9,22,1,False,rug,f,20,2022-11-15 10:24:14.731452,results/221115_10.24_data_subj9_block1_trial22.csv,E083,0,107.0,27.0,134.0,True,6.546
9,22,1,False,rug,f,20,2022-11-15 10:24:14.731452,results/221115_10.24_data_subj9_block1_trial22.csv,E079,1,50.0,110.0,160.0,False,6.546
9,23,1,False,rug,f,20,2022-11-15 10:24:14.731452,results/221115_10.24_data_subj9_block1_trial23.csv,E066,0,50.0,170.0,220.0,True,5.677
9,23,1,False,rug,f,20,2022-11-15 10:24:14.731452,results/221115_10.24_data_subj9_block1_trial23.csv,E049,1,80.0,80.0,160.0,False,5.677
9,24,1,False,rug,f,20,2022-11-15 10:24:14.731452,results/221115_10.24_data_subj9_block1_trial24.csv,E038,0,110.0,80.0,190.0,False,6.429
9,24,1,False,rug,f,20,2022-11-15 10:24:14.731452,results/221115_10.24_data_subj9_block1_trial24.csv,E054,1,200.0,260.0,460.0,True,6.429
9,0,2,False,rug,f,20,2022-11-15 10:24:14.731452,results/221115_10.24_data_subj9_block2_trial0.csv,E047,0,140.0,140.0,280.0,True,6.132
9,0,2,False,rug,f,20,2022-11-15 10:24:14.731452,results/221115_10.24_data_subj9_block2_trial0.csv,E026,1,440.0,200.0,640.0,False,6.132
9,1,2,False,rug,f,20,2022-11-15 10:24:14.731452,results/221115_10.24_data_subj9_block2_trial1.csv,E056,0,110.0,170.0,280.0,True,5.265
9,1,2,False,rug,f,20,2022-11-15 10:24:14.731452,results/221115_10.24_data_subj9_block2_trial1.csv,E009,1,560.0,80.0,640.0,False,5.265
9,2,2,False,rug,f,20,2022-11-15 10:24:14.731452,results/221115_10.24_data_subj9_block2_trial2.csv,E063,0,80.0,200.0,280.0,True,6.148
9,2,2,False,rug,f,20,2022-11-15 10:24:14.731452,results/221115_10.24_data_subj9_block2_trial2.csv,E047,1,140.0,140.0,280.0,False,6.148
9,3,2,False,rug,f,20,2022-11-15 10:24:14.731452,results/221115_10.24_data_subj9_block2_trial3.csv,E074,0,110.0,50.0,160.0,True,6.378
9,3,2,False,rug,f,20,2022-11-15 10:24:14.731452,results/221115_10.24_data_subj9_block2_trial3.csv,E013,1,80.0,20.0,100.0,False,6.378
9,4,2,False,rug,f,20,2022-11-15 10:24:14.731452,results/221115_10.24_data_subj9_block2_trial4.csv,E027,0,170.0,80.0,250.0,False,6.198
9,4,2,False,rug,f,20,2022-11-15 10:24:14.731452,results/221115_10.24_data_subj9_block2_trial4.csv,E065,1,80.0,260.0,340.0,True,6.198
9,5,2,False,rug,f,20,2022-11-15 10:24:14.731452,results/221115_10.24_data_subj9_block2_trial5.csv,E043,0,320.0,260.0,580.0,True,6.314
9,5,2,False,rug,f,20,2022-11-15 10:24:14.731452,results/221115_10.24_data_subj9_block2_trial5.csv,E059,1,80.0,140.0,220.0,False,6.314
9,6,2,False,rug,f,20,2022-11-15 10:24:14.731452,results/221115_10.24_data_subj9_block2_trial6.csv,E074,0,110.0,50.0,160.0,False,6.78
9,6,2,False,rug,f,20,2022-11-15 10:24:14.731452,results/221115_10.24_data_subj9_block2_trial6.csv,E021,1,560.0,200.0,760.0,True,6.78
9,7,2,False,rug,f,20,2022-11-15 10:24:14.731452,results/221115_10.24_data_subj9_block2_trial7.csv,E003,0,440.0,20.0,460.0,True,6.618
9,7,2,False,rug,f,20,2022-11-15 10:24:14.731452,results/221115_10.24_data_subj9_block2_trial7.csv,E019,1,440.0,140.0,580.0,False,6.618
9,8,2,False,rug,f,20,2022-11-15 10:24:14.731452,results/221115_10.24_data_subj9_block2_trial8.csv,E056,0,110.0,170.0,280.0,True,6.047
9,8,2,False,rug,f,20,2022-11-15 10:24:14.731452,results/221115_10.24_data_subj9_block2_trial8.csv,E018,1,260.0,80.0,340.0,False,6.047
9,9,2,False,rug,f,20,2022-11-15 10:24:14.731452,results/221115_10.24_data_subj9_block2_trial9.csv,E006,0,260.0,20.0,280.0,True,6.246
9,9,2,False,rug,f,20,2022-11-15 10:24:14.731452,results/221115_10.24_data_subj9_block2_trial9.csv,E063,1,80.0,200.0,280.0,False,6.246
9,10,2,False,rug,f,20,2022-11-15 10:24:14.731452,results/221115_10.24_data_subj9_block2_trial10.csv,E063,0,80.0,200.0,280.0,False,6.964
9,10,2,False,rug,f,20,2022-11-15 10:24:14.731452,results/221115_10.24_data_subj9_block2_trial10.csv,E024,1,500.0,200.0,700.0,True,6.964
9,11,2,False,rug,f,20,2022-11-15 10:24:14.731452,results/221115_10.24_data_subj9_block2_trial11.csv,E082,0,22.0,113.0,135.0,True,5.922
9,11,2,False,rug,f,20,2022-11-15 10:24:14.731452,results/221115_10.24_data_subj9_block2_trial11.csv,E021,1,560.0,200.0,760.0,False,5.922
9,12,2,False,rug,f,20,2022-11-15 10:24:14.731452,results/221115_10.24_data_subj9_block2_trial12.csv,E009,0,560.0,80.0,640.0,True,6.647
9,12,2,False,rug,f,20,2022-11-15 10:24:14.731452,results/221115_10.24_data_subj9_block2_trial12.csv,E051,1,140.0,170.0,310.0,False,6.647
9,13,2,False,rug,f,20,2022-11-15 10:24:14.731452,results/221115_10.24_data_subj9_block2_trial13.csv,E048,0,170.0,170.0,340.0,False,5.881
9,13,2,False,rug,f,20,2022-11-15 10:24:14.731452,results/221115_10.24_data_subj9_block2_trial13.csv,E040,1,260.0,200.0,460.0,True,5.881
9,14,2,False,rug,f,20,2022-11-15 10:24:14.731452,results/221115_10.24_data_subj9_block2_trial14.csv,E073,0,797.0,116.0,913.0,True,5.814
9,14,2,False,rug,f,20,2022-11-15 10:24:14.731452,results/221115_10.24_data_subj9_block2_trial14.csv,E065,1,80.0,260.0,340.0,False,5.814
9,15,2,False,rug,f,20,2022-11-15 10:24:14.731452,results/221115_10.24_data_subj9_block2_trial15.csv,E046,0,200.0,200.0,400.0,True,6.397
9,15,2,False,rug,f,20,2022-11-15 10:24:14.731452,results/221115_10.24_data_subj9_block2_trial15.csv,E041,1,140.0,110.0,250.0,False,6.397
9,16,2,False,rug,f,20,2022-11-15 10:24:14.731452,results/221115_10.24_data_subj9_block2_trial16.csv,E058,0,50.0,80.0,130.0,True,6.248
9,16,2,False,rug,f,20,2022-11-15 10:24:14.731452,results/221115_10.24_data_subj9_block2_trial16.csv,E013,1,80.0,20.0,100.0,False,6.248
9,17,2,False,rug,f,20,2022-11-15 10:24:14.731452,results/221115_10.24_data_subj9_block2_trial17.csv,E016,0,500.0,140.0,640.0,True,5.679
9,17,2,False,rug,f,20,2022-11-15 10:24:14.731452,results/221115_10.24_data_subj9_block2_trial17.csv,E053,1,110.0,140.0,250.0,False,5.679
9,18,2,False,rug,f,20,2022-11-15 10:24:14.731452,results/221115_10.24_data_subj9_block2_trial18.csv,E076,0,50.0,50.0,100.0,False,6.53
9,18,2,False,rug,f,20,2022-11-15 10:24:14.731452,results/221115_10.24_data_subj9_block2_trial18.csv,E025,1,320.0,140.0,460.0,True,6.53
9,19,2,False,rug,f,20,2022-11-15 10:24:14.731452,results/221115_10.24_data_subj9_block2_trial19.csv,E019,0,440.0,140.0,580.0,True,5.732
9,19,2,False,rug,f,20,2022-11-15 10:24:14.731452,results/221115_10.24_data_subj9_block2_trial19.csv,E077,1,110.0,110.0,220.0,False,5.732
9,20,2,False,rug,f,20,2022-11-15 10:24:14.731452,results/221115_10.24_data_subj9_block2_trial20.csv,E064,0,50.0,140.0,190.0,False,5.76
9,20,2,False,rug,f,20,2022-11-15 10:24:14.731452,results/221115_10.24_data_subj9_block2_trial20.csv,E024,1,500.0,200.0,700.0,True,5.76
9,21,2,False,rug,f,20,2022-11-15 10:24:14.731452,results/221115_10.24_data_subj9_block2_trial21.csv,E052,0,260.0,320.0,580.0,True,5.782
9,21,2,False,rug,f,20,2022-11-15 10:24:14.731452,results/221115_10.24_data_subj9_block2_trial21.csv,E076,1,50.0,50.0,100.0,False,5.782
9,22,2,False,rug,f,20,2022-11-15 10:24:14.731452,results/221115_10.24_data_subj9_block2_trial22.csv,E035,0,170.0,110.0,280.0,True,6.163
9,22,2,False,rug,f,20,2022-11-15 10:24:14.731452,results/221115_10.24_data_subj9_block2_trial22.csv,E048,1,170.0,170.0,340.0,False,6.163
9,23,2,False,rug,f,20,2022-11-15 10:24:14.731452,results/221115_10.24_data_subj9_block2_trial23.csv,E081,0,107.0,210.0,317.0,True,7.597
9,23,2,False,rug,f,20,2022-11-15 10:24:14.731452,results/221115_10.24_data_subj9_block2_trial23.csv,E046,1,200.0,200.0,400.0,False,7.597
9,24,2,False,rug,f,20,2022-11-15 10:24:14.731452,results/221115_10.24_data_subj9_block2_trial24.csv,E030,0,260.0,140.0,400.0,True,5.864
9,24,2,False,rug,f,20,2022-11-15 10:24:14.731452,results/221115_10.24_data_subj9_block2_trial24.csv,E049,1,80.0,80.0,160.0,False,5.864
9,0,3,False,rug,f,20,2022-11-15 10:24:14.731452,results/221115_10.24_data_subj9_block3_trial0.csv,E036,0,380.0,260.0,640.0,True,6.598
9,0,3,False,rug,f,20,2022-11-15 10:24:14.731452,results/221115_10.24_data_subj9_block3_trial0.csv,E034,1,320.0,200.0,520.0,False,6.598
9,1,3,False,rug,f,20,2022-11-15 10:24:14.731452,results/221115_10.24_data_subj9_block3_trial1.csv,E020,0,140.0,50.0,190.0,True,5.615
9,1,3,False,rug,f,20,2022-11-15 10:24:14.731452,results/221115_10.24_data_subj9_block3_trial1.csv,E075,1,20.0,20.0,40.0,False,5.615
9,2,3,False,rug,f,20,2022-11-15 10:24:14.731452,results/221115_10.24_data_subj9_block3_trial2.csv,E053,0,110.0,140.0,250.0,True,5.567
9,2,3,False,rug,f,20,2022-11-15 10:24:14.731452,results/221115_10.24_data_subj9_block3_trial2.csv,E035,1,170.0,110.0,280.0,False,5.567
9,3,3,False,rug,f,20,2022-11-15 10:24:14.731452,results/221115_10.24_data_subj9_block3_trial3.csv,E049,0,80.0,80.0,160.0,False,5.849
9,3,3,False,rug,f,20,2022-11-15 10:24:14.731452,results/221115_10.24_data_subj9_block3_trial3.csv,E042,1,380.0,320.0,700.0,True,5.849
9,4,3,False,rug,f,20,2022-11-15 10:24:14.731452,results/221115_10.24_data_subj9_block3_trial4.csv,E030,0,260.0,140.0,400.0,False,5.982
9,4,3,False,rug,f,20,2022-11-15 10:24:14.731452,results/221115_10.24_data_subj9_block3_trial4.csv,E042,1,380.0,320.0,700.0,True,5.982
9,5,3,False,rug,f,20,2022-11-15 10:24:14.731452,results/221115_10.24_data_subj9_block3_trial5.csv,E062,0,140.0,320.0,460.0,True,5.949
9,5,3,False,rug,f,20,2022-11-15 10:24:14.731452,results/221115_10.24_data_subj9_block3_trial5.csv,E029,1,380.0,200.0,580.0,False,5.949
9,6,3,False,rug,f,20,2022-11-15 10:24:14.731452,results/221115_10.24_data_subj9_block3_trial6.csv,E023,0,200.0,80.0,280.0,True,6.33
9,6,3,False,rug,f,20,2022-11-15 10:24:14.731452,results/221115_10.24_data_subj9_block3_trial6.csv,E056,1,110.0,170.0,280.0,False,6.33
9,7,3,False,rug,f,20,2022-11-15 10:24:14.731452,results/221115_10.24_data_subj9_block3_trial7.csv,E054,0,200.0,260.0,460.0,True,5.233
9,7,3,False,rug,f,20,2022-11-15 10:24:14.731452,results/221115_10.24_data_subj9_block3_trial7.csv,E031,1,140.0,80.0,220.0,False,5.233
9,8,3,False,rug,f,20,2022-11-15 10:24:14.731452,results/221115_10.24_data_subj9_block3_trial8.csv,E012,0,380.0,80.0,460.0,True,5.698
9,8,3,False,rug,f,20,2022-11-15 10:24:14.731452,results/221115_10.24_data_subj9_block3_trial8.csv,E017,1,170.0,50.0,220.0,False,5.698
9,9,3,False,rug,f,20,2022-11-15 10:24:14.731452,results/221115_10.24_data_subj9_block3_trial9.csv,E045,0,260.0,260.0,520.0,True,5.898
9,9,3,False,rug,f,20,2022-11-15 10:24:14.731452,results/221115_10.24_data_subj9_block3_trial9.csv,E016,1,500.0,140.0,640.0,False,5.898
9,10,3,False,rug,f,20,2022-11-15 10:24:14.731452,results/221115_10.24_data_subj9_block3_trial10.csv,E046,0,200.0,200.0,400.0,True,5.467
9,10,3,False,rug,f,20,2022-11-15 10:24:14.731452,results/221115_10.24_data_subj9_block3_trial10.csv,E061,1,80.0,170.0,250.0,False,5.467
9,11,3,False,rug,f,20,2022-11-15 10:24:14.731452,results/221115_10.24_data_subj9_block3_trial11.csv,E074,0,110.0,50.0,160.0,False,6.364
9,11,3,False,rug,f,20,2022-11-15 10:24:14.731452,results/221115_10.24_data_subj9_block3_trial11.csv,E030,1,260.0,140.0,400.0,True,6.364
9,12,3,False,rug,f,20,2022-11-15 10:24:14.731452,results/221115_10.24_data_subj9_block3_trial12.csv,E004,0,320.0,20.0,340.0,False,5.648
9,12,3,False,rug,f,20,2022-11-15 10:24:14.731452,results/221115_10.24_data_subj9_block3_trial12.csv,E071,1,20.0,260.0,280.0,True,5.648
9,13,3,False,rug,f,20,2022-11-15 10:24:14.731452,results/221115_10.24_data_subj9_block3_trial13.csv,E002,0,500.0,20.0,520.0,False,5.433
9,13,3,False,rug,f,20,2022-11-15 10:24:14.731452,results/221115_10.24_data_subj9_block3_trial13.csv,E045,1,260.0,260.0,520.0,True,5.433
9,14,3,False,rug,f,20,2022-11-15 10:24:14.731452,results/221115_10.24_data_subj9_block3_trial14.csv,E025,0,320.0,140.0,460.0,True,6.714
9,14,3,False,rug,f,20,2022-11-15 10:24:14.731452,results/221115_10.24_data_subj9_block3_trial14.csv,E061,1,80.0,170.0,250.0,False,6.714
9,15,3,False,rug,f,20,2022-11-15 10:24:14.731452,results/221115_10.24_data_subj9_block3_trial15.csv,E002,0,500.0,20.0,520.0,False,5.316
9,15,3,False,rug,f,20,2022-11-15 10:24:14.731452,results/221115_10.24_data_subj9_block3_trial15.csv,E060,1,140.0,260.0,400.0,True,5.316
9,16,3,False,rug,f,20,2022-11-15 10:24:14.731452,results/221115_10.24_data_subj9_block3_trial16.csv,E010,0,500.0,80.0,580.0,True,6.83
