,subj,trial,block,practice,condition,sex,age,date,data_file,texture_id,stim_order,diameter,opening,spacing,response,rt,Unnamed: 0
10,6,0,1,False,soft,f,23,2022-11-10 08:22:05.219727,results/221110_08.22_data_subj6_block1_trial0.csv,E030,0,260.0,140.0,400.0,False,10.857,
11,6,0,1,False,soft,f,23,2022-11-10 08:22:05.219727,results/221110_08.22_data_subj6_block1_trial0.csv,E064,1,50.0,140.0,190.0,True,10.857,
12,6,1,1,False,soft,f,23,2022-11-10 08:22:05.219727,results/221110_08.22_data_subj6_block1_trial1.csv,E061,0,80.0,170.0,250.0,True,11.883,
13,6,1,1,False,soft,f,23,2022-11-10 08:22:05.219727,results/221110_08.22_data_subj6_block1_trial1.csv,E006,1,260.0,20.0,280.0,False,11.883,
14,6,2,1,False,soft,f,23,2022-11-10 08:22:05.219727,results/221110_08.22_data_subj6_block1_trial2.csv,E048,0,170.0,170.0,340.0,False,10.245,
15,6,2,1,False,soft,f,23,2022-11-10 08:22:05.219727,results/221110_08.22_data_subj6_block1_trial2.csv,E038,1,110.0,80.0,190.0,True,10.245,
16,6,3,1,False,soft,f,23,2022-11-10 08:22:05.219727,results/221110_08.22_data_subj6_block1_trial3.csv,E069,0,20.0,140.0,160.0,True,9.698,
17,6,3,1,False,soft,f,23,2022-11-10 08:22:05.219727,results/221110_08.22_data_subj6_block1_trial3.csv,E065,1,80.0,260.0,340.0,False,9.698,
18,6,4,1,False,soft,f,23,2022-11-10 08:22:05.219727,results/221110_08.22_data_subj6_block1_trial4.csv,E028,0,500.0,260.0,760.0,True,9.379,
19,6,4,1,False,soft,f,23,2022-11-10 08:22:05.219727,results/221110_08.22_data_subj6_block1_trial4.csv,E052,1,260.0,320.0,580.0,False,9.379,
20,6,5,1,False,soft,f,23,2022-11-10 08:22:05.219727,results/221110_08.22_data_subj6_block1_trial5.csv,E017,0,170.0,50.0,220.0,True,9.393,
21,6,5,1,False,soft,f,23,2022-11-10 08:22:05.219727,results/221110_08.22_data_subj6_block1_trial5.csv,E056,1,110.0,170.0,280.0,False,9.393,
22,6,6,1,False,soft,f,23,2022-11-10 08:22:05.219727,results/221110_08.22_data_subj6_block1_trial6.csv,E034,0,320.0,200.0,520.0,False,10.399,
23,6,6,1,False,soft,f,23,2022-11-10 08:22:05.219727,results/221110_08.22_data_subj6_block1_trial6.csv,E079(S41),1,50.0,110.0,160.0,True,10.399,
24,6,7,1,False,soft,f,23,2022-11-10 08:22:05.219727,results/221110_08.22_data_subj6_block1_trial7.csv,E034,0,320.0,200.0,520.0,True,8.764,
25,6,7,1,False,soft,f,23,2022-11-10 08:22:05.219727,results/221110_08.22_data_subj6_block1_trial7.csv,E071,1,20.0,260.0,280.0,False,8.764,
26,6,8,1,False,soft,f,23,2022-11-10 08:22:05.219727,results/221110_08.22_data_subj6_block1_trial8.csv,E072,0,20.0,320.0,340.0,False,9.776,
27,6,8,1,False,soft,f,23,2022-11-10 08:22:05.219727,results/221110_08.22_data_subj6_block1_trial8.csv,E076(S43),1,50.0,50.0,100.0,True,9.776,
28,6,9,1,False,soft,f,23,2022-11-10 08:22:05.219727,results/221110_08.22_data_subj6_block1_trial9.csv,E021,0,560.0,200.0,760.0,False,9.116,
29,6,9,1,False,soft,f,23,2022-11-10 08:22:05.219727,results/221110_08.22_data_subj6_block1_trial9.csv,E074(S39),1,110.0,50.0,160.0,True,9.116,
30,6,10,1,False,soft,f,23,2022-11-10 08:22:05.219727,results/221110_08.22_data_subj6_block1_trial10.csv,E048,0,170.0,170.0,340.0,True,8.131,
31,6,10,1,False,soft,f,23,2022-11-10 08:22:05.219727,results/221110_08.22_data_subj6_block1_trial10.csv,E024,1,500.0,200.0,700.0,False,8.131,
32,6,11,1,False,soft,f,23,2022-11-10 08:22:05.219727,results/221110_08.22_data_subj6_block1_trial11.csv,E001,0,560.0,20.0,580.0,False,9.045,
33,6,11,1,False,soft,f,23,2022-11-10 08:22:05.219727,results/221110_08.22_data_subj6_block1_trial11.csv,E033,1,80.0,50.0,130.0,True,9.045,
34,6,12,1,False,soft,f,23,2022-11-10 08:22:05.219727,results/221110_08.22_data_subj6_block1_trial12.csv,E017,0,170.0,50.0,220.0,True,8.781,
35,6,12,1,False,soft,f,23,2022-11-10 08:22:05.219727,results/221110_08.22_data_subj6_block1_trial12.csv,E009,1,560.0,80.0,640.0,False,8.781,
36,6,13,1,False,soft,f,23,2022-11-10 08:22:05.219727,results/221110_08.22_data_subj6_block1_trial13.csv,E083(S38),0,107.0,27.0,134.0,True,8.515,
37,6,13,1,False,soft,f,23,2022-11-10 08:22:05.219727,results/221110_08.22_data_subj6_block1_trial13.csv,E016,1,500.0,140.0,640.0,False,8.515,
38,6,14,1,False,soft,f,23,2022-11-10 08:22:05.219727,results/221110_08.22_data_subj6_block1_trial14.csv,E057,0,200.0,320.0,520.0,False,9.063,
39,6,14,1,False,soft,f,23,2022-11-10 08:22:05.219727,results/221110_08.22_data_subj6_block1_trial14.csv,E065,1,80.0,260.0,340.0,True,9.063,
40,6,15,1,False,soft,f,23,2022-11-10 08:22:05.219727,results/221110_08.22_data_subj6_block1_trial15.csv,E001,0,560.0,20.0,580.0,True,9.479,
41,6,15,1,False,soft,f,23,2022-11-10 08:22:05.219727,results/221110_08.22_data_subj6_block1_trial15.csv,E065,1,80.0,260.0,340.0,False,9.479,
42,6,16,1,False,soft,f,23,2022-11-10 08:22:05.219727,results/221110_08.22_data_subj6_block1_trial16.csv,E055,0,140.0,200.0,340.0,False,8.946,
43,6,16,1,False,soft,f,23,2022-11-10 08:22:05.219727,results/221110_08.22_data_subj6_block1_trial16.csv,E068,1,20.0,80.0,100.0,True,8.946,
44,6,17,1,False,soft,f,23,2022-11-10 08:22:05.219727,results/221110_08.22_data_subj6_block1_trial17.csv,E023,0,200.0,80.0,280.0,True,8.93,
45,6,17,1,False,soft,f,23,2022-11-10 08:22:05.219727,results/221110_08.22_data_subj6_block1_trial17.csv,E070,1,20.0,200.0,220.0,False,8.93,
46,6,18,1,False,soft,f,23,2022-11-10 08:22:05.219727,results/221110_08.22_data_subj6_block1_trial18.csv,E025,0,320.0,140.0,460.0,False,9.748,
47,6,18,1,False,soft,f,23,2022-11-10 08:22:05.219727,results/221110_08.22_data_subj6_block1_trial18.csv,E061,1,80.0,170.0,250.0,True,9.748,
48,6,19,1,False,soft,f,23,2022-11-10 08:22:05.219727,results/221110_08.22_data_subj6_block1_trial19.csv,E081(S03),0,107.0,210.0,317.0,True,8.364,
49,6,19,1,False,soft,f,23,2022-11-10 08:22:05.219727,results/221110_08.22_data_subj6_block1_trial19.csv,E057,1,200.0,320.0,520.0,False,8.364,
50,6,20,1,False,soft,f,23,2022-11-10 08:22:05.219727,results/221110_08.22_data_subj6_block1_trial20.csv,E002,0,500.0,20.0,520.0,False,8.532,
51,6,20,1,False,soft,f,23,2022-11-10 08:22:05.219727,results/221110_08.22_data_subj6_block1_trial20.csv,E025,1,320.0,140.0,460.0,True,8.532,
52,6,21,1,False,soft,f,23,2022-11-10 08:22:05.219727,results/221110_08.22_data_subj6_block1_trial21.csv,E038,0,110.0,80.0,190.0,False,9.531,
53,6,21,1,False,soft,f,23,2022-11-10 08:22:05.219727,results/221110_08.22_data_subj6_block1_trial21.csv,E033,1,80.0,50.0,130.0,True,9.531,
54,6,22,1,False,soft,f,23,2022-11-10 08:22:05.219727,results/221110_08.22_data_subj6_block1_trial22.csv,E070,0,20.0,200.0,220.0,False,9.498,
55,6,22,1,False,soft,f,23,2022-11-10 08:22:05.219727,results/221110_08.22_data_subj6_block1_trial22.csv,E013,1,80.0,20.0,100.0,True,9.498,
56,6,23,1,False,soft,f,23,2022-11-10 08:22:05.219727,results/221110_08.22_data_subj6_block1_trial23.csv,E076(S43),0,50.0,50.0,100.0,True,9.114,
57,6,23,1,False,soft,f,23,2022-11-10 08:22:05.219727,results/221110_08.22_data_subj6_block1_trial23.csv,E032,1,440.0,260.0,700.0,False,9.114,
58,6,24,1,False,soft,f,23,2022-11-10 08:22:05.219727,results/221110_08.22_data_subj6_block1_trial24.csv,E025,0,320.0,140.0,460.0,True,9.431,
59,6,24,1,False,soft,f,23,2022-11-10 08:22:05.219727,results/221110_08.22_data_subj6_block1_trial24.csv,E015,1,560.0,140.0,700.0,False,9.431,
60,6,0,2,False,soft,f,23,2022-11-10 08:22:05.219727,results/221110_08.22_data_subj6_block2_trial0.csv,E007,0,200.0,20.0,220.0,True,9.213,
61,6,0,2,False,soft,f,23,2022-11-10 08:22:05.219727,results/221110_08.22_data_subj6_block2_trial0.csv,E010,1,500.0,80.0,580.0,False,9.213,
62,6,1,2,False,soft,f,23,2022-11-10 08:22:05.219727,results/221110_08.22_data_subj6_block2_trial1.csv,E003,0,440.0,20.0,460.0,True,10.016,
63,6,1,2,False,soft,f,23,2022-11-10 08:22:05.219727,results/221110_08.22_data_subj6_block2_trial1.csv,E022,1,380.0,140.0,520.0,False,10.016,
64,6,2,2,False,soft,f,23,2022-11-10 08:22:05.219727,results/221110_08.22_data_subj6_block2_trial2.csv,E043,0,320.0,260.0,580.0,False,9.414,
65,6,2,2,False,soft,f,23,2022-11-10 08:22:05.219727,results/221110_08.22_data_subj6_block2_trial2.csv,E078(S45),1,80.0,110.0,190.0,True,9.414,
66,6,3,2,False,soft,f,23,2022-11-10 08:22:05.219727,results/221110_08.22_data_subj6_block2_trial3.csv,E020,0,140.0,50.0,190.0,False,9.145,
67,6,3,2,False,soft,f,23,2022-11-10 08:22:05.219727,results/221110_08.22_data_subj6_block2_trial3.csv,E075(S42),1,20.0,20.0,40.0,True,9.145,
68,6,4,2,False,soft,f,23,2022-11-10 08:22:05.219727,results/221110_08.22_data_subj6_block2_trial4.csv,E038,0,110.0,80.0,190.0,False,9.298,
69,6,4,2,False,soft,f,23,2022-11-10 08:22:05.219727,results/221110_08.22_data_subj6_block2_trial4.csv,E074(S39),1,110.0,50.0,160.0,True,9.298,
70,6,5,2,False,soft,f,23,2022-11-10 08:22:05.219727,results/221110_08.22_data_subj6_block2_trial5.csv,E035,0,170.0,110.0,280.0,True,9.708,
71,6,5,2,False,soft,f,23,2022-11-10 08:22:05.219727,results/221110_08.22_data_subj6_block2_trial5.csv,E021,1,560.0,200.0,760.0,False,9.708,
72,6,6,2,False,soft,f,23,2022-11-10 08:22:05.219727,results/221110_08.22_data_subj6_block2_trial6.csv,E077(S32),0,110.0,110.0,220.0,False,10.131,
73,6,6,2,False,soft,f,23,2022-11-10 08:22:05.219727,results/221110_08.22_data_subj6_block2_trial6.csv,E064,1,50.0,140.0,190.0,True,10.131,
74,6,7,2,False,soft,f,23,2022-11-10 08:22:05.219727,results/221110_08.22_data_subj6_block2_trial7.csv,E010,0,500.0,80.0,580.0,False,10.513,
75,6,7,2,False,soft,f,23,2022-11-10 08:22:05.219727,results/221110_08.22_data_subj6_block2_trial7.csv,E046,1,200.0,200.0,400.0,True,10.513,
76,6,8,2,False,soft,f,23,2022-11-10 08:22:05.219727,results/221110_08.22_data_subj6_block2_trial8.csv,E073(S18),0,797.0,116.0,913.0,True,10.414,
77,6,8,2,False,soft,f,23,2022-11-10 08:22:05.219727,results/221110_08.22_data_subj6_block2_trial8.csv,E006,1,260.0,20.0,280.0,False,10.414,
78,6,9,2,False,soft,f,23,2022-11-10 08:22:05.219727,results/221110_08.22_data_subj6_block2_trial9.csv,E076(S43),0,50.0,50.0,100.0,True,10.361,
79,6,9,2,False,soft,f,23,2022-11-10 08:22:05.219727,results/221110_08.22_data_subj6_block2_trial9.csv,E015,1,560.0,140.0,700.0,False,10.361,
80,6,10,2,False,soft,f,23,2022-11-10 08:22:05.219727,results/221110_08.22_data_subj6_block2_trial10.csv,E074(S39),0,110.0,50.0,160.0,True,9.848,
81,6,10,2,False,soft,f,23,2022-11-10 08:22:05.219727,results/221110_08.22_data_subj6_block2_trial10.csv,E031,1,140.0,80.0,220.0,False,9.848,
82,6,11,2,False,soft,f,23,2022-11-10 08:22:05.219727,results/221110_08.22_data_subj6_block2_trial11.csv,E071,0,20.0,260.0,280.0,False,10.081,
83,6,11,2,False,soft,f,23,2022-11-10 08:22:05.219727,results/221110_08.22_data_subj6_block2_trial11.csv,E043,1,320.0,260.0,580.0,True,10.081,
84,6,12,2,False,soft,f,23,2022-11-10 08:22:05.219727,results/221110_08.22_data_subj6_block2_trial12.csv,E079(S41),0,50.0,110.0,160.0,True,9.514,
85,6,12,2,False,soft,f,23,2022-11-10 08:22:05.219727,results/221110_08.22_data_subj6_block2_trial12.csv,E024,1,500.0,200.0,700.0,False,9.514,
86,6,13,2,False,soft,f,23,2022-11-10 08:22:05.219727,results/221110_08.22_data_subj6_block2_trial13.csv,E051,0,140.0,170.0,310.0,True,9.64,
87,6,13,2,False,soft,f,23,2022-11-10 08:22:05.219727,results/221110_08.22_data_subj6_block2_trial13.csv,E067,1,80.0,320.0,400.0,False,9.64,
88,6,14,2,False,soft,f,23,2022-11-10 08:22:05.219727,results/221110_08.22_data_subj6_block2_trial14.csv,E010,0,500.0,80.0,580.0,True,9.279,
89,6,14,2,False,soft,f,23,2022-11-10 08:22:05.219727,results/221110_08.22_data_subj6_block2_trial14.csv,E052,1,260.0,320.0,580.0,False,9.279,
90,6,15,2,False,soft,f,23,2022-11-10 08:22:05.219727,results/221110_08.22_data_subj6_block2_trial15.csv,E052,0,260.0,320.0,580.0,False,9.413,
91,6,15,2,False,soft,f,23,2022-11-10 08:22:05.219727,results/221110_08.22_data_subj6_block2_trial15.csv,E001,1,560.0,20.0,580.0,True,9.413,
92,6,16,2,False,soft,f,23,2022-11-10 08:22:05.219727,results/221110_08.22_data_subj6_block2_trial16.csv,E036,0,380.0,260.0,640.0,False,9.615,
93,6,16,2,False,soft,f,23,2022-11-10 08:22:05.219727,results/221110_08.22_data_subj6_block2_trial16.csv,E005,1,380.0,20.0,400.0,True,9.615,
94,6,17,2,False,soft,f,23,2022-11-10 08:22:05.219727,results/221110_08.22_data_subj6_block2_trial17.csv,E077(S32),0,110.0,110.0,220.0,False,8.898,
95,6,17,2,False,soft,f,23,2022-11-10 08:22:05.219727,results/221110_08.22_data_subj6_block2_trial17.csv,E010,1,500.0,80.0,580.0,True,8.898,
96,6,18,2,False,soft,f,23,2022-11-10 08:22:05.219727,results/221110_08.22_data_subj6_block2_trial18.csv,E009,0,560.0,80.0,640.0,False,9.763,
97,6,18,2,False,soft,f,23,2022-11-10 08:22:05.219727,results/221110_08.22_data_subj6_block2_trial18.csv,E023,1,200.0,80.0,280.0,True,9.763,
98,6,19,2,False,soft,f,23,2022-11-10 08:22:05.219727,results/221110_08.22_data_subj6_block2_trial19.csv,E007,0,200.0,20.0,220.0,False,10.031,
99,6,19,2,False,soft,f,23,2022-11-10 08:22:05.219727,results/221110_08.22_data_subj6_block2_trial19.csv,E058,1,50.0,80.0,130.0,True,10.031,
100,6,20,2,False,soft,f,23,2022-11-10 08:22:05.219727,results/221110_08.22_data_subj6_block2_trial20.csv,E039,0,440.0,320.0,760.0,False,11.031,
101,6,20,2,False,soft,f,23,2022-11-10 08:22:05.219727,results/221110_08.22_data_subj6_block2_trial20.csv,E010,1,500.0,80.0,580.0,True,11.031,
102,6,21,2,False,soft,f,23,2022-11-10 08:22:05.219727,results/221110_08.22_data_subj6_block2_trial21.csv,E002,0,500.0,20.0,520.0,True,10.247,
103,6,21,2,False,soft,f,23,2022-11-10 08:22:05.219727,results/221110_08.22_data_subj6_block2_trial21.csv,E015,1,560.0,140.0,700.0,False,10.247,
104,6,22,2,False,soft,f,23,2022-11-10 08:22:05.219727,results/221110_08.22_data_subj6_block2_trial22.csv,E040,0,260.0,200.0,460.0,True,10.031,
105,6,22,2,False,soft,f,23,2022-11-10 08:22:05.219727,results/221110_08.22_data_subj6_block2_trial22.csv,E054,1,200.0,260.0,460.0,False,10.031,
106,6,23,2,False,soft,f,23,2022-11-10 08:22:05.219727,results/221110_08.22_data_subj6_block2_trial23.csv,E013,0,80.0,20.0,100.0,True,9.913,
107,6,23,2,False,soft,f,23,2022-11-10 08:22:05.219727,results/221110_08.22_data_subj6_block2_trial23.csv,E069,1,20.0,140.0,160.0,False,9.913,
108,6,24,2,False,soft,f,23,2022-11-10 08:22:05.219727,results/221110_08.22_data_subj6_block2_trial24.csv,E081(S03),0,107.0,210.0,317.0,False,11.049,
109,6,24,2,False,soft,f,23,2022-11-10 08:22:05.219727,results/221110_08.22_data_subj6_block2_trial24.csv,E025,1,320.0,140.0,460.0,True,11.049,
110,6,0,3,False,soft,f,23,2022-11-10 08:22:05.219727,results/221110_08.22_data_subj6_block3_trial0.csv,E038,0,110.0,80.0,190.0,True,11.512,
111,6,0,3,False,soft,f,23,2022-11-10 08:22:05.219727,results/221110_08.22_data_subj6_block3_trial0.csv,E071,1,20.0,260.0,280.0,False,11.512,
112,6,1,3,False,soft,f,23,2022-11-10 08:22:05.219727,results/221110_08.22_data_subj6_block3_trial1.csv,E059,0,80.0,140.0,220.0,True,11.396,
113,6,1,3,False,soft,f,23,2022-11-10 08:22:05.219727,results/221110_08.22_data_subj6_block3_trial1.csv,E038,1,110.0,80.0,190.0,False,11.396,
114,6,2,3,False,soft,f,23,2022-11-10 08:22:05.219727,results/221110_08.22_data_subj6_block3_trial2.csv,E081(S03),0,107.0,210.0,317.0,True,10.396,
115,6,2,3,False,soft,f,23,2022-11-10 08:22:05.219727,results/221110_08.22_data_subj6_block3_trial2.csv,E048,1,170.0,170.0,340.0,False,10.396,
116,6,3,3,False,soft,f,23,2022-11-10 08:22:05.219727,results/221110_08.22_data_subj6_block3_trial3.csv,E025,0,320.0,140.0,460.0,True,9.898,
117,6,3,3,False,soft,f,23,2022-11-10 08:22:05.219727,results/221110_08.22_data_subj6_block3_trial3.csv,E032,1,440.0,260.0,700.0,False,9.898,
118,6,4,3,False,soft,f,23,2022-11-10 08:22:05.219727,results/221110_08.22_data_subj6_block3_trial4.csv,E036,0,380.0,260.0,640.0,False,10.263,
119,6,4,3,False,soft,f,23,2022-11-10 08:22:05.219727,results/221110_08.22_data_subj6_block3_trial4.csv,E036,1,380.0,260.0,640.0,True,10.263,
120,6,5,3,False,soft,f,23,2022-11-10 08:22:05.219727,results/221110_08.22_data_subj6_block3_trial5.csv,E080(S07),0,106.0,610.0,716.0,False,10.397,
121,6,5,3,False,soft,f,23,2022-11-10 08:22:05.219727,results/221110_08.22_data_subj6_block3_trial5.csv,E042,1,380.0,320.0,700.0,True,10.397,
122,6,6,3,False,soft,f,23,2022-11-10 08:22:05.219727,results/221110_08.22_data_subj6_block3_trial6.csv,E003,0,440.0,20.0,460.0,True,10.566,
123,6,6,3,False,soft,f,23,2022-11-10 08:22:05.219727,results/221110_08.22_data_subj6_block3_trial6.csv,E071,1,20.0,260.0,280.0,False,10.566,
124,6,7,3,False,soft,f,23,2022-11-10 08:22:05.219727,results/221110_08.22_data_subj6_block3_trial7.csv,E036,0,380.0,260.0,640.0,False,11.964,
125,6,7,3,False,soft,f,23,2022-11-10 08:22:05.219727,results/221110_08.22_data_subj6_block3_trial7.csv,E056,1,110.0,170.0,280.0,True,11.964,
126,6,8,3,False,soft,f,23,2022-11-10 08:22:05.219727,results/221110_08.22_data_subj6_block3_trial8.csv,E078(S45),0,80.0,110.0,190.0,True,12.347,
127,6,8,3,False,soft,f,23,2022-11-10 08:22:05.219727,results/221110_08.22_data_subj6_block3_trial8.csv,E036,1,380.0,260.0,640.0,False,12.347,
128,6,9,3,False,soft,f,23,2022-11-10 08:22:05.219727,results/221110_08.22_data_subj6_block3_trial9.csv,E026,0,440.0,200.0,640.0,False,11.963,
129,6,9,3,False,soft,f,23,2022-11-10 08:22:05.219727,results/221110_08.22_data_subj6_block3_trial9.csv,E003,1,440.0,20.0,460.0,True,11.963,
130,6,10,3,False,soft,f,23,2022-11-10 08:22:05.219727,results/221110_08.22_data_subj6_block3_trial10.csv,E067,0,80.0,320.0,400.0,False,10.882,
131,6,10,3,False,soft,f,23,2022-11-10 08:22:05.219727,results/221110_08.22_data_subj6_block3_trial10.csv,E010,1,500.0,80.0,580.0,True,10.882,
132,6,11,3,False,soft,f,23,2022-11-10 08:22:05.219727,results/221110_08.22_data_subj6_block3_trial11.csv,E054,0,200.0,260.0,460.0,False,12.229,
133,6,11,3,False,soft,f,23,2022-11-10 08:22:05.219727,results/221110_08.22_data_subj6_block3_trial11.csv,E033,1,80.0,50.0,130.0,True,12.229,
134,6,12,3,False,soft,f,23,2022-11-10 08:22:05.219727,results/221110_08.22_data_subj6_block3_trial12.csv,E062,0,140.0,320.0,460.0,False,10.463,
135,6,12,3,False,soft,f,23,2022-11-10 08:22:05.219727,results/221110_08.22_data_subj6_block3_trial12.csv,E037,1,200.0,140.0,340.0,True,10.463,
136,6,13,3,False,soft,f,23,2022-11-10 08:22:05.219727,results/221110_08.22_data_subj6_block3_trial13.csv,E074(S39),0,110.0,50.0,160.0,False,11.697,
137,6,13,3,False,soft,f,23,2022-11-10 08:22:05.219727,results/221110_08.22_data_subj6_block3_trial13.csv,E058,1,50.0,80.0,130.0,True,11.697,
138,6,14,3,False,soft,f,23,2022-11-10 08:22:05.219727,results/221110_08.22_data_subj6_block3_trial14.csv,E029,0,380.0,200.0,580.0,True,9.447,
139,6,14,3,False,soft,f,23,2022-11-10 08:22:05.219727,results/221110_08.22_data_subj6_block3_trial14.csv,E028,1,500.0,260.0,760.0,False,9.447,
140,6,15,3,False,soft,f,23,2022-11-10 08:22:05.219727,results/221110_08.22_data_subj6_block3_trial15.csv,E010,0,500.0,80.0,580.0,False,11.213,
141,6,15,3,False,soft,f,23,2022-11-10 08:22:05.219727,results/221110_08.22_data_subj6_block3_trial15.csv,E010,1,500.0,80.0,580.0,True,11.213,
142,6,16,3,False,soft,f,23,2022-11-10 08:22:05.219727,results/221110_08.22_data_subj6_block3_trial16.csv,E052,0,260.0,320.0,580.0,False,13.077,
143,6,16,3,False,soft,f,23,2022-11-10 08:22:05.219727,results/221110_08.22_data_subj6_block3_trial16.csv,E023,1,200.0,80.0,280.0,True,13.077,
144,6,17,3,False,soft,f,23,2022-11-10 08:22:05.219727,results/221110_08.22_data_subj6_block3_trial17.csv,E066,0,50.0,170.0,220.0,True,12.747,
145,6,17,3,False,soft,f,23,2022-11-10 08:22:05.219727,results/221110_08.22_data_subj6_block3_trial17.csv,E006,1,260.0,20.0,280.0,False,12.747,
146,6,18,3,False,soft,f,23,2022-11-10 08:22:05.219727,results/221110_08.22_data_subj6_block3_trial18.csv,E074(S39),0,110.0,50.0,160.0,True,16.078,
147,6,18,3,False,soft,f,23,2022-11-10 08:22:05.219727,results/221110_08.22_data_subj6_block3_trial18.csv,E022,1,380.0,140.0,520.0,False,16.078,
148,6,19,3,False,soft,f,23,2022-11-10 08:22:05.219727,results/221110_08.22_data_subj6_block3_trial19.csv,E071,0,20.0,260.0,280.0,False,13.63,
149,6,19,3,False,soft,f,23,2022-11-10 08:22:05.219727,results/221110_08.22_data_subj6_block3_trial19.csv,E031,1,140.0,80.0,220.0,True,13.63,
150,6,20,3,False,soft,f,23,2022-11-10 08:22:05.219727,results/221110_08.22_data_subj6_block3_trial20.csv,E001,0,560.0,20.0,580.0,True,13.23,
151,6,20,3,False,soft,f,23,2022-11-10 08:22:05.219727,results/221110_08.22_data_subj6_block3_trial20.csv,E063,1,80.0,200.0,280.0,False,13.23,
152,6,21,3,False,soft,f,23,2022-11-10 08:22:05.219727,results/221110_08.22_data_subj6_block3_trial21.csv,E075(S42),0,20.0,20.0,40.0,True,11.097,
153,6,21,3,False,soft,f,23,2022-11-10 08:22:05.219727,results/221110_08.22_data_subj6_block3_trial21.csv,E072,1,20.0,320.0,340.0,False,11.097,
154,6,22,3,False,soft,f,23,2022-11-10 08:22:05.219727,results/221110_08.22_data_subj6_block3_trial22.csv,E026,0,440.0,200.0,640.0,False,13.397,
155,6,22,3,False,soft,f,23,2022-11-10 08:22:05.219727,results/221110_08.22_data_subj6_block3_trial22.csv,E015,1,560.0,140.0,700.0,True,13.397,
156,6,23,3,False,soft,f,23,2022-11-10 08:22:05.219727,results/221110_08.22_data_subj6_block3_trial23.csv,E018,0,260.0,80.0,340.0,True,11.181,
157,6,23,3,False,soft,f,23,2022-11-10 08:22:05.219727,results/221110_08.22_data_subj6_block3_trial23.csv,E080(S07),1,106.0,610.0,716.0,False,11.181,
158,6,24,3,False,soft,f,23,2022-11-10 08:22:05.219727,results/221110_08.22_data_subj6_block3_trial24.csv,E076(S43),0,50.0,50.0,100.0,True,10.546,
159,6,24,3,False,soft,f,23,2022-11-10 08:22:05.219727,results/221110_08.22_data_subj6_block3_trial24.csv,E011,1,440.0,80.0,520.0,False,10.546,
160,6,0,4,False,soft,f,23,2022-11-10 08:22:05.219727,results/221110_08.22_data_subj6_block4_trial0.csv,E038,0,110.0,80.0,190.0,True,0.834,
161,6,0,4,False,soft,f,23,2022-11-10 08:22:05.219727,results/221110_08.22_data_subj6_block4_trial0.csv,E071,1,20.0,260.0,280.0,False,0.834,
162,6,1,4,False,soft,f,23,2022-11-10 08:22:05.219727,results/221110_08.22_data_subj6_block4_trial1.csv,E059,0,80.0,140.0,220.0,False,12.763,
163,6,1,4,False,soft,f,23,2022-11-10 08:22:05.219727,results/221110_08.22_data_subj6_block4_trial1.csv,E038,1,110.0,80.0,190.0,True,12.763,
164,6,2,4,False,soft,f,23,2022-11-10 08:22:05.219727,results/221110_08.22_data_subj6_block4_trial2.csv,E081(S03),0,107.0,210.0,317.0,True,11.53,
165,6,2,4,False,soft,f,23,2022-11-10 08:22:05.219727,results/221110_08.22_data_subj6_block4_trial2.csv,E048,1,170.0,170.0,340.0,False,11.53,
166,6,3,4,False,soft,f,23,2022-11-10 08:22:05.219727,results/221110_08.22_data_subj6_block4_trial3.csv,E025,0,320.0,140.0,460.0,True,11.962,
167,6,3,4,False,soft,f,23,2022-11-10 08:22:05.219727,results/221110_08.22_data_subj6_block4_trial3.csv,E032,1,440.0,260.0,700.0,False,11.962,
168,6,4,4,False,soft,f,23,2022-11-10 08:22:05.219727,results/221110_08.22_data_subj6_block4_trial4.csv,E036,0,380.0,260.0,640.0,False,15.129,
169,6,4,4,False,soft,f,23,2022-11-10 08:22:05.219727,results/221110_08.22_data_subj6_block4_trial4.csv,E036,1,380.0,260.0,640.0,True,15.129,
170,6,5,4,False,soft,f,23,2022-11-10 08:22:05.219727,results/221110_08.22_data_subj6_block4_trial5.csv,E080(S07),0,106.0,610.0,716.0,False,12.63,
171,6,5,4,False,soft,f,23,2022-11-10 08:22:05.219727,results/221110_08.22_data_subj6_block4_trial5.csv,E042,1,380.0,320.0,700.0,True,12.63,
172,6,6,4,False,soft,f,23,2022-11-10 08:22:05.219727,results/221110_08.22_data_subj6_block4_trial6.csv,E003,0,440.0,20.0,460.0,False,11.165,
173,6,6,4,False,soft,f,23,2022-11-10 08:22:05.219727,results/221110_08.22_data_subj6_block4_trial6.csv,E071,1,20.0,260.0,280.0,True,11.165,
174,6,7,4,False,soft,f,23,2022-11-10 08:22:05.219727,results/221110_08.22_data_subj6_block4_trial7.csv,E036,0,380.0,260.0,640.0,False,13.363,
175,6,7,4,False,soft,f,23,2022-11-10 08:22:05.219727,results/221110_08.22_data_subj6_block4_trial7.csv,E056,1,110.0,170.0,280.0,True,13.363,
176,6,8,4,False,soft,f,23,2022-11-10 08:22:05.219727,results/221110_08.22_data_subj6_block4_trial8.csv,E078(S45),0,80.0,110.0,190.0,True,15.011,
177,6,8,4,False,soft,f,23,2022-11-10 08:22:05.219727,results/221110_08.22_data_subj6_block4_trial8.csv,E036,1,380.0,260.0,640.0,False,15.011,
178,6,9,4,False,soft,f,23,2022-11-10 08:22:05.219727,results/221110_08.22_data_subj6_block4_trial9.csv,E026,0,440.0,200.0,640.0,True,11.58,
179,6,9,4,False,soft,f,23,2022-11-10 08:22:05.219727,results/221110_08.22_data_subj6_block4_trial9.csv,E003,1,440.0,20.0,460.0,False,11.58,
180,6,10,4,False,soft,f,23,2022-11-10 08:22:05.219727,results/221110_08.22_data_subj6_block4_trial10.csv,E067,0,80.0,320.0,400.0,True,11.497,
181,6,10,4,False,soft,f,23,2022-11-10 08:22:05.219727,results/221110_08.22_data_subj6_block4_trial10.csv,E010,1,500.0,80.0,580.0,False,11.497,
182,6,11,4,False,soft,f,23,2022-11-10 08:22:05.219727,results/221110_08.22_data_subj6_block4_trial11.csv,E054,0,200.0,260.0,460.0,False,11.179,
183,6,11,4,False,soft,f,23,2022-11-10 08:22:05.219727,results/221110_08.22_data_subj6_block4_trial11.csv,E033,1,80.0,50.0,130.0,True,11.179,
184,6,12,4,False,soft,f,23,2022-11-10 08:22:05.219727,results/221110_08.22_data_subj6_block4_trial12.csv,E062,0,140.0,320.0,460.0,True,13.459,
185,6,12,4,False,soft,f,23,2022-11-10 08:22:05.219727,results/221110_08.22_data_subj6_block4_trial12.csv,E037,1,200.0,140.0,340.0,False,13.459,
186,6,13,4,False,soft,f,23,2022-11-10 08:22:05.219727,results/221110_08.22_data_subj6_block4_trial13.csv,E074(S39),0,110.0,50.0,160.0,False,11.115,
187,6,13,4,False,soft,f,23,2022-11-10 08:22:05.219727,results/221110_08.22_data_subj6_block4_trial13.csv,E058,1,50.0,80.0,130.0,True,11.115,
188,6,14,4,False,soft,f,23,2022-11-10 08:22:05.219727,results/221110_08.22_data_subj6_block4_trial14.csv,E029,0,380.0,200.0,580.0,True,11.331,
189,6,14,4,False,soft,f,23,2022-11-10 08:22:05.219727,results/221110_08.22_data_subj6_block4_trial14.csv,E028,1,500.0,260.0,760.0,False,11.331,
190,6,15,4,False,soft,f,23,2022-11-10 08:22:05.219727,results/221110_08.22_data_subj6_block4_trial15.csv,E010,0,500.0,80.0,580.0,True,10.63,
191,6,15,4,False,soft,f,23,2022-11-10 08:22:05.219727,results/221110_08.22_data_subj6_block4_trial15.csv,E010,1,500.0,80.0,580.0,False,10.63,
192,6,16,4,False,soft,f,23,2022-11-10 08:22:05.219727,results/221110_08.22_data_subj6_block4_trial16.csv,E052,0,260.0,320.0,580.0,False,10.116,
193,6,16,4,False,soft,f,23,2022-11-10 08:22:05.219727,results/221110_08.22_data_subj6_block4_trial16.csv,E023,1,200.0,80.0,280.0,True,10.116,
194,6,17,4,False,soft,f,23,2022-11-10 08:22:05.219727,results/221110_08.22_data_subj6_block4_trial17.csv,E066,0,50.0,170.0,220.0,True,10.898,
195,6,17,4,False,soft,f,23,2022-11-10 08:22:05.219727,results/221110_08.22_data_subj6_block4_trial17.csv,E006,1,260.0,20.0,280.0,False,10.898,
196,6,18,4,False,soft,f,23,2022-11-10 08:22:05.219727,results/221110_08.22_data_subj6_block4_trial18.csv,E074(S39),0,110.0,50.0,160.0,True,9.331,
197,6,18,4,False,soft,f,23,2022-11-10 08:22:05.219727,results/221110_08.22_data_subj6_block4_trial18.csv,E022,1,380.0,140.0,520.0,False,9.331,
198,6,19,4,False,soft,f,23,2022-11-10 08:22:05.219727,results/221110_08.22_data_subj6_block4_trial19.csv,E071,0,20.0,260.0,280.0,False,12.596,
199,6,19,4,False,soft,f,23,2022-11-10 08:22:05.219727,results/221110_08.22_data_subj6_block4_trial19.csv,E031,1,140.0,80.0,220.0,True,12.596,
200,6,20,4,False,soft,f,23,2022-11-10 08:22:05.219727,results/221110_08.22_data_subj6_block4_trial20.csv,E001,0,560.0,20.0,580.0,True,10.207,
201,6,20,4,False,soft,f,23,2022-11-10 08:22:05.219727,results/221110_08.22_data_subj6_block4_trial20.csv,E063,1,80.0,200.0,280.0,False,10.207,
202,6,21,4,False,soft,f,23,2022-11-10 08:22:05.219727,results/221110_08.22_data_subj6_block4_trial21.csv,E075(S42),0,20.0,20.0,40.0,True,10.797,
203,6,21,4,False,soft,f,23,2022-11-10 08:22:05.219727,results/221110_08.22_data_subj6_block4_trial21.csv,E072,1,20.0,320.0,340.0,False,10.797,
204,6,22,4,False,soft,f,23,2022-11-10 08:22:05.219727,results/221110_08.22_data_subj6_block4_trial22.csv,E026,0,440.0,200.0,640.0,True,10.343,
205,6,22,4,False,soft,f,23,2022-11-10 08:22:05.219727,results/221110_08.22_data_subj6_block4_trial22.csv,E015,1,560.0,140.0,700.0,False,10.343,
206,6,23,4,False,soft,f,23,2022-11-10 08:22:05.219727,results/221110_08.22_data_subj6_block4_trial23.csv,E018,0,260.0,80.0,340.0,True,11.964,
207,6,23,4,False,soft,f,23,2022-11-10 08:22:05.219727,results/221110_08.22_data_subj6_block4_trial23.csv,E080(S07),1,106.0,610.0,716.0,False,11.964,
208,6,24,4,False,soft,f,23,2022-11-10 08:22:05.219727,results/221110_08.22_data_subj6_block4_trial24.csv,E076(S43),0,50.0,50.0,100.0,True,12.746,
209,6,24,4,False,soft,f,23,2022-11-10 08:22:05.219727,results/221110_08.22_data_subj6_block4_trial24.csv,E011,1,440.0,80.0,520.0,False,12.746,
220,7,0,1,False,soft,m,21,2022-11-10 10:41:45.411461,results/221110_10.41_data_subj7_block1_trial0.csv,E057,0,200.0,320.0,520.0,False,9.013,
221,7,0,1,False,soft,m,21,2022-11-10 10:41:45.411461,results/221110_10.41_data_subj7_block1_trial0.csv,E078(S45),1,80.0,110.0,190.0,True,9.013,
222,7,1,1,False,soft,m,21,2022-11-10 10:41:45.411461,results/221110_10.41_data_subj7_block1_trial1.csv,E036,0,380.0,260.0,640.0,False,9.331,
223,7,1,1,False,soft,m,21,2022-11-10 10:41:45.411461,results/221110_10.41_data_subj7_block1_trial1.csv,E059,1,80.0,140.0,220.0,True,9.331,
224,7,2,1,False,soft,m,21,2022-11-10 10:41:45.411461,results/221110_10.41_data_subj7_block1_trial2.csv,E047,0,140.0,140.0,280.0,False,8.164,
225,7,2,1,False,soft,m,21,2022-11-10 10:41:45.411461,results/221110_10.41_data_subj7_block1_trial2.csv,E031,1,140.0,80.0,220.0,True,8.164,
226,7,3,1,False,soft,m,21,2022-11-10 10:41:45.411461,results/221110_10.41_data_subj7_block1_trial3.csv,E067,0,80.0,320.0,400.0,False,9.583,
227,7,3,1,False,soft,m,21,2022-11-10 10:41:45.411461,results/221110_10.41_data_subj7_block1_trial3.csv,E048,1,170.0,170.0,340.0,True,9.583,
228,7,4,1,False,soft,m,21,2022-11-10 10:41:45.411461,results/221110_10.41_data_subj7_block1_trial4.csv,E053,0,110.0,140.0,250.0,False,8.562,
229,7,4,1,False,soft,m,21,2022-11-10 10:41:45.411461,results/221110_10.41_data_subj7_block1_trial4.csv,E033,1,80.0,50.0,130.0,True,8.562,
230,7,5,1,False,soft,m,21,2022-11-10 10:41:45.411461,results/221110_10.41_data_subj7_block1_trial5.csv,E037,0,200.0,140.0,340.0,False,8.581,
231,7,5,1,False,soft,m,21,2022-11-10 10:41:45.411461,results/221110_10.41_data_subj7_block1_trial5.csv,E027,1,170.0,80.0,250.0,True,8.581,
232,7,6,1,False,soft,m,21,2022-11-10 10:41:45.411461,results/221110_10.41_data_subj7_block1_trial6.csv,E002,0,500.0,20.0,520.0,True,7.465,
233,7,6,1,False,soft,m,21,2022-11-10 10:41:45.411461,results/221110_10.41_data_subj7_block1_trial6.csv,E052,1,260.0,320.0,580.0,False,7.465,
234,7,7,1,False,soft,m,21,2022-11-10 10:41:45.411461,results/221110_10.41_data_subj7_block1_trial7.csv,E077(S32),0,110.0,110.0,220.0,True,9.831,
235,7,7,1,False,soft,m,21,2022-11-10 10:41:45.411461,results/221110_10.41_data_subj7_block1_trial7.csv,E041,1,140.0,110.0,250.0,False,9.831,
236,7,8,1,False,soft,m,21,2022-11-10 10:41:45.411461,results/221110_10.41_data_subj7_block1_trial8.csv,E010,0,500.0,80.0,580.0,False,8.764,
237,7,8,1,False,soft,m,21,2022-11-10 10:41:45.411461,results/221110_10.41_data_subj7_block1_trial8.csv,E023,1,200.0,80.0,280.0,True,8.764,
238,7,9,1,False,soft,m,21,2022-11-10 10:41:45.411461,results/221110_10.41_data_subj7_block1_trial9.csv,E024,0,500.0,200.0,700.0,False,8.281,
239,7,9,1,False,soft,m,21,2022-11-10 10:41:45.411461,results/221110_10.41_data_subj7_block1_trial9.csv,E008,1,140.0,20.0,160.0,True,8.281,
240,7,10,1,False,soft,m,21,2022-11-10 10:41:45.411461,results/221110_10.41_data_subj7_block1_trial10.csv,E066,0,50.0,170.0,220.0,True,9.079,
241,7,10,1,False,soft,m,21,2022-11-10 10:41:45.411461,results/221110_10.41_data_subj7_block1_trial10.csv,E044,1,170.0,140.0,310.0,False,9.079,
242,7,11,1,False,soft,m,21,2022-11-10 10:41:45.411461,results/221110_10.41_data_subj7_block1_trial11.csv,E060,0,140.0,260.0,400.0,True,9.331,
243,7,11,1,False,soft,m,21,2022-11-10 10:41:45.411461,results/221110_10.41_data_subj7_block1_trial11.csv,E062,1,140.0,320.0,460.0,False,9.331,
244,7,12,1,False,soft,m,21,2022-11-10 10:41:45.411461,results/221110_10.41_data_subj7_block1_trial12.csv,E045,0,260.0,260.0,520.0,False,8.645,
245,7,12,1,False,soft,m,21,2022-11-10 10:41:45.411461,results/221110_10.41_data_subj7_block1_trial12.csv,E037,1,200.0,140.0,340.0,True,8.645,
246,7,13,1,False,soft,m,21,2022-11-10 10:41:45.411461,results/221110_10.41_data_subj7_block1_trial13.csv,E037,0,200.0,140.0,340.0,False,10.197,
247,7,13,1,False,soft,m,21,2022-11-10 10:41:45.411461,results/221110_10.41_data_subj7_block1_trial13.csv,E020,1,140.0,50.0,190.0,True,10.197,
248,7,14,1,False,soft,m,21,2022-11-10 10:41:45.411461,results/221110_10.41_data_subj7_block1_trial14.csv,E012,0,380.0,80.0,460.0,False,8.584,
249,7,14,1,False,soft,m,21,2022-11-10 10:41:45.411461,results/221110_10.41_data_subj7_block1_trial14.csv,E049,1,80.0,80.0,160.0,True,8.584,
250,7,15,1,False,soft,m,21,2022-11-10 10:41:45.411461,results/221110_10.41_data_subj7_block1_trial15.csv,E002,0,500.0,20.0,520.0,True,8.364,
251,7,15,1,False,soft,m,21,2022-11-10 10:41:45.411461,results/221110_10.41_data_subj7_block1_trial15.csv,E060,1,140.0,260.0,400.0,False,8.364,
252,7,16,1,False,soft,m,21,2022-11-10 10:41:45.411461,results/221110_10.41_data_subj7_block1_trial16.csv,E039,0,440.0,320.0,760.0,False,8.598,
253,7,16,1,False,soft,m,21,2022-11-10 10:41:45.411461,results/221110_10.41_data_subj7_block1_trial16.csv,E033,1,80.0,50.0,130.0,True,8.598,
254,7,17,1,False,soft,m,21,2022-11-10 10:41:45.411461,results/221110_10.41_data_subj7_block1_trial17.csv,E061,0,80.0,170.0,250.0,True,9.031,
255,7,17,1,False,soft,m,21,2022-11-10 10:41:45.411461,results/221110_10.41_data_subj7_block1_trial17.csv,E051,1,140.0,170.0,310.0,False,9.031,
256,7,18,1,False,soft,m,21,2022-11-10 10:41:45.411461,results/221110_10.41_data_subj7_block1_trial18.csv,E062,0,140.0,320.0,460.0,False,8.811,
257,7,18,1,False,soft,m,21,2022-11-10 10:41:45.411461,results/221110_10.41_data_subj7_block1_trial18.csv,E070,1,20.0,200.0,220.0,True,8.811,
258,7,19,1,False,soft,m,21,2022-11-10 10:41:45.411461,results/221110_10.41_data_subj7_block1_trial19.csv,E051,0,140.0,170.0,310.0,False,8.678,
259,7,19,1,False,soft,m,21,2022-11-10 10:41:45.411461,results/221110_10.41_data_subj7_block1_trial19.csv,E059,1,80.0,140.0,220.0,True,8.678,
260,7,20,1,False,soft,m,21,2022-11-10 10:41:45.411461,results/221110_10.41_data_subj7_block1_trial20.csv,E006,0,260.0,20.0,280.0,True,9.715,
261,7,20,1,False,soft,m,21,2022-11-10 10:41:45.411461,results/221110_10.41_data_subj7_block1_trial20.csv,E027,1,170.0,80.0,250.0,False,9.715,
262,7,21,1,False,soft,m,21,2022-11-10 10:41:45.411461,results/221110_10.41_data_subj7_block1_trial21.csv,E048,0,170.0,170.0,340.0,False,8.731,
263,7,21,1,False,soft,m,21,2022-11-10 10:41:45.411461,results/221110_10.41_data_subj7_block1_trial21.csv,E004,1,320.0,20.0,340.0,True,8.731,
264,7,22,1,False,soft,m,21,2022-11-10 10:41:45.411461,results/221110_10.41_data_subj7_block1_trial22.csv,E021,0,560.0,200.0,760.0,False,9.564,
265,7,22,1,False,soft,m,21,2022-11-10 10:41:45.411461,results/221110_10.41_data_subj7_block1_trial22.csv,E022,1,380.0,140.0,520.0,True,9.564,
266,7,23,1,False,soft,m,21,2022-11-10 10:41:45.411461,results/221110_10.41_data_subj7_block1_trial23.csv,E045,0,260.0,260.0,520.0,False,9.584,
267,7,23,1,False,soft,m,21,2022-11-10 10:41:45.411461,results/221110_10.41_data_subj7_block1_trial23.csv,E002,1,500.0,20.0,520.0,True,9.584,
268,7,24,1,False,soft,m,21,2022-11-10 10:41:45.411461,results/221110_10.41_data_subj7_block1_trial24.csv,E064,0,50.0,140.0,190.0,True,8.864,
269,7,24,1,False,soft,m,21,2022-11-10 10:41:45.411461,results/221110_10.41_data_subj7_block1_trial24.csv,E018,1,260.0,80.0,340.0,False,8.864,
270,7,0,2,False,soft,m,21,2022-11-10 10:41:45.411461,results/221110_10.41_data_subj7_block2_trial0.csv,E022,0,380.0,140.0,520.0,True,9.446,
271,7,0,2,False,soft,m,21,2022-11-10 10:41:45.411461,results/221110_10.41_data_subj7_block2_trial0.csv,E015,1,560.0,140.0,700.0,False,9.446,
272,7,1,2,False,soft,m,21,2022-11-10 10:41:45.411461,results/221110_10.41_data_subj7_block2_trial1.csv,E020,0,140.0,50.0,190.0,True,8.811,
273,7,1,2,False,soft,m,21,2022-11-10 10:41:45.411461,results/221110_10.41_data_subj7_block2_trial1.csv,E052,1,260.0,320.0,580.0,False,8.811,
274,7,2,2,False,soft,m,21,2022-11-10 10:41:45.411461,results/221110_10.41_data_subj7_block2_trial2.csv,E026,0,440.0,200.0,640.0,False,8.533,
275,7,2,2,False,soft,m,21,2022-11-10 10:41:45.411461,results/221110_10.41_data_subj7_block2_trial2.csv,E051,1,140.0,170.0,310.0,True,8.533,
276,7,3,2,False,soft,m,21,2022-11-10 10:41:45.411461,results/221110_10.41_data_subj7_block2_trial3.csv,E018,0,260.0,80.0,340.0,False,8.831,
277,7,3,2,False,soft,m,21,2022-11-10 10:41:45.411461,results/221110_10.41_data_subj7_block2_trial3.csv,E047,1,140.0,140.0,280.0,True,8.831,
278,7,4,2,False,soft,m,21,2022-11-10 10:41:45.411461,results/221110_10.41_data_subj7_block2_trial4.csv,E028,0,500.0,260.0,760.0,False,8.897,
279,7,4,2,False,soft,m,21,2022-11-10 10:41:45.411461,results/221110_10.41_data_subj7_block2_trial4.csv,E016,1,500.0,140.0,640.0,True,8.897,
280,7,5,2,False,soft,m,21,2022-11-10 10:41:45.411461,results/221110_10.41_data_subj7_block2_trial5.csv,E064,0,50.0,140.0,190.0,True,7.833,
281,7,5,2,False,soft,m,21,2022-11-10 10:41:45.411461,results/221110_10.41_data_subj7_block2_trial5.csv,E045,1,260.0,260.0,520.0,False,7.833,
282,7,6,2,False,soft,m,21,2022-11-10 10:41:45.411461,results/221110_10.41_data_subj7_block2_trial6.csv,E068,0,20.0,80.0,100.0,True,9.282,
283,7,6,2,False,soft,m,21,2022-11-10 10:41:45.411461,results/221110_10.41_data_subj7_block2_trial6.csv,E066,1,50.0,170.0,220.0,False,9.282,
284,7,7,2,False,soft,m,21,2022-11-10 10:41:45.411461,results/221110_10.41_data_subj7_block2_trial7.csv,E054,0,200.0,260.0,460.0,False,8.794,
285,7,7,2,False,soft,m,21,2022-11-10 10:41:45.411461,results/221110_10.41_data_subj7_block2_trial7.csv,E008,1,140.0,20.0,160.0,True,8.794,
286,7,8,2,False,soft,m,21,2022-11-10 10:41:45.411461,results/221110_10.41_data_subj7_block2_trial8.csv,E079(S41),0,50.0,110.0,160.0,True,8.412,
287,7,8,2,False,soft,m,21,2022-11-10 10:41:45.411461,results/221110_10.41_data_subj7_block2_trial8.csv,E057,1,200.0,320.0,520.0,False,8.412,
288,7,9,2,False,soft,m,21,2022-11-10 10:41:45.411461,results/221110_10.41_data_subj7_block2_trial9.csv,E053,0,110.0,140.0,250.0,True,9.197,
289,7,9,2,False,soft,m,21,2022-11-10 10:41:45.411461,results/221110_10.41_data_subj7_block2_trial9.csv,E050,1,320.0,320.0,640.0,False,9.197,
290,7,10,2,False,soft,m,21,2022-11-10 10:41:45.411461,results/221110_10.41_data_subj7_block2_trial10.csv,E066,0,50.0,170.0,220.0,True,8.731,
291,7,10,2,False,soft,m,21,2022-11-10 10:41:45.411461,results/221110_10.41_data_subj7_block2_trial10.csv,E046,1,200.0,200.0,400.0,False,8.731,
292,7,11,2,False,soft,m,21,2022-11-10 10:41:45.411461,results/221110_10.41_data_subj7_block2_trial11.csv,E070,0,20.0,200.0,220.0,False,8.23,
293,7,11,2,False,soft,m,21,2022-11-10 10:41:45.411461,results/221110_10.41_data_subj7_block2_trial11.csv,E076(S43),1,50.0,50.0,100.0,True,8.23,
294,7,12,2,False,soft,m,21,2022-11-10 10:41:45.411461,results/221110_10.41_data_subj7_block2_trial12.csv,E082(S40),0,22.0,113.0,135.0,True,8.531,
295,7,12,2,False,soft,m,21,2022-11-10 10:41:45.411461,results/221110_10.41_data_subj7_block2_trial12.csv,E077(S32),1,110.0,110.0,220.0,False,8.531,
296,7,13,2,False,soft,m,21,2022-11-10 10:41:45.411461,results/221110_10.41_data_subj7_block2_trial13.csv,E071,0,20.0,260.0,280.0,True,9.233,
297,7,13,2,False,soft,m,21,2022-11-10 10:41:45.411461,results/221110_10.41_data_subj7_block2_trial13.csv,E039,1,440.0,320.0,760.0,False,9.233,
298,7,14,2,False,soft,m,21,2022-11-10 10:41:45.411461,results/221110_10.41_data_subj7_block2_trial14.csv,E022,0,380.0,140.0,520.0,True,9.264,
299,7,14,2,False,soft,m,21,2022-11-10 10:41:45.411461,results/221110_10.41_data_subj7_block2_trial14.csv,E025,1,320.0,140.0,460.0,False,9.264,
300,7,15,2,False,soft,m,21,2022-11-10 10:41:45.411461,results/221110_10.41_data_subj7_block2_trial15.csv,E063,0,80.0,200.0,280.0,True,8.699,
301,7,15,2,False,soft,m,21,2022-11-10 10:41:45.411461,results/221110_10.41_data_subj7_block2_trial15.csv,E035,1,170.0,110.0,280.0,False,8.699,
302,7,16,2,False,soft,m,21,2022-11-10 10:41:45.411461,results/221110_10.41_data_subj7_block2_trial16.csv,E039,0,440.0,320.0,760.0,False,7.981,
303,7,16,2,False,soft,m,21,2022-11-10 10:41:45.411461,results/221110_10.41_data_subj7_block2_trial16.csv,E071,1,20.0,260.0,280.0,True,7.981,
304,7,17,2,False,soft,m,21,2022-11-10 10:41:45.411461,results/221110_10.41_data_subj7_block2_trial17.csv,E061,0,80.0,170.0,250.0,True,7.914,
305,7,17,2,False,soft,m,21,2022-11-10 10:41:45.411461,results/221110_10.41_data_subj7_block2_trial17.csv,E028,1,500.0,260.0,760.0,False,7.914,
306,7,18,2,False,soft,m,21,2022-11-10 10:41:45.411461,results/221110_10.41_data_subj7_block2_trial18.csv,E077(S32),0,110.0,110.0,220.0,False,9.046,
307,7,18,2,False,soft,m,21,2022-11-10 10:41:45.411461,results/221110_10.41_data_subj7_block2_trial18.csv,E059,1,80.0,140.0,220.0,True,9.046,
308,7,19,2,False,soft,m,21,2022-11-10 10:41:45.411461,results/221110_10.41_data_subj7_block2_trial19.csv,E016,0,500.0,140.0,640.0,False,10.905,
309,7,19,2,False,soft,m,21,2022-11-10 10:41:45.411461,results/221110_10.41_data_subj7_block2_trial19.csv,E011,1,440.0,80.0,520.0,True,10.905,
310,7,20,2,False,soft,m,21,2022-11-10 10:41:45.411461,results/221110_10.41_data_subj7_block2_trial20.csv,E011,0,440.0,80.0,520.0,False,8.913,
311,7,20,2,False,soft,m,21,2022-11-10 10:41:45.411461,results/221110_10.41_data_subj7_block2_trial20.csv,E082(S40),1,22.0,113.0,135.0,True,8.913,
312,7,21,2,False,soft,m,21,2022-11-10 10:41:45.411461,results/221110_10.41_data_subj7_block2_trial21.csv,E033,0,80.0,50.0,130.0,True,10.096,
313,7,21,2,False,soft,m,21,2022-11-10 10:41:45.411461,results/221110_10.41_data_subj7_block2_trial21.csv,E038,1,110.0,80.0,190.0,False,10.096,
314,7,22,2,False,soft,m,21,2022-11-10 10:41:45.411461,results/221110_10.41_data_subj7_block2_trial22.csv,E074(S39),0,110.0,50.0,160.0,True,10.317,
315,7,22,2,False,soft,m,21,2022-11-10 10:41:45.411461,results/221110_10.41_data_subj7_block2_trial22.csv,E016,1,500.0,140.0,640.0,False,10.317,
316,7,23,2,False,soft,m,21,2022-11-10 10:41:45.411461,results/221110_10.41_data_subj7_block2_trial23.csv,E002,0,500.0,20.0,520.0,True,8.497,
317,7,23,2,False,soft,m,21,2022-11-10 10:41:45.411461,results/221110_10.41_data_subj7_block2_trial23.csv,E016,1,500.0,140.0,640.0,False,8.497,
318,7,24,2,False,soft,m,21,2022-11-10 10:41:45.411461,results/221110_10.41_data_subj7_block2_trial24.csv,E056,0,110.0,170.0,280.0,False,9.348,
319,7,24,2,False,soft,m,21,2022-11-10 10:41:45.411461,results/221110_10.41_data_subj7_block2_trial24.csv,E008,1,140.0,20.0,160.0,True,9.348,
320,7,0,3,False,soft,m,21,2022-11-10 10:41:45.411461,results/221110_10.41_data_subj7_block3_trial0.csv,E037,0,200.0,140.0,340.0,False,9.912,
321,7,0,3,False,soft,m,21,2022-11-10 10:41:45.411461,results/221110_10.41_data_subj7_block3_trial0.csv,E063,1,80.0,200.0,280.0,True,9.912,
322,7,1,3,False,soft,m,21,2022-11-10 10:41:45.411461,results/221110_10.41_data_subj7_block3_trial1.csv,E083(S38),0,107.0,27.0,134.0,True,9.263,
323,7,1,3,False,soft,m,21,2022-11-10 10:41:45.411461,results/221110_10.41_data_subj7_block3_trial1.csv,E002,1,500.0,20.0,520.0,False,9.263,
324,7,2,3,False,soft,m,21,2022-11-10 10:41:45.411461,results/221110_10.41_data_subj7_block3_trial2.csv,E054,0,200.0,260.0,460.0,True,10.383,
325,7,2,3,False,soft,m,21,2022-11-10 10:41:45.411461,results/221110_10.41_data_subj7_block3_trial2.csv,E005,1,380.0,20.0,400.0,False,10.383,
326,7,3,3,False,soft,m,21,2022-11-10 10:41:45.411461,results/221110_10.41_data_subj7_block3_trial3.csv,E033,0,80.0,50.0,130.0,True,13.346,
327,7,3,3,False,soft,m,21,2022-11-10 10:41:45.411461,results/221110_10.41_data_subj7_block3_trial3.csv,E035,1,170.0,110.0,280.0,False,13.346,
328,7,4,3,False,soft,m,21,2022-11-10 10:41:45.411461,results/221110_10.41_data_subj7_block3_trial4.csv,E030,0,260.0,140.0,400.0,True,9.947,
329,7,4,3,False,soft,m,21,2022-11-10 10:41:45.411461,results/221110_10.41_data_subj7_block3_trial4.csv,E045,1,260.0,260.0,520.0,False,9.947,
330,7,5,3,False,soft,m,21,2022-11-10 10:41:45.411461,results/221110_10.41_data_subj7_block3_trial5.csv,E073(S18),0,797.0,116.0,913.0,False,10.112,
331,7,5,3,False,soft,m,21,2022-11-10 10:41:45.411461,results/221110_10.41_data_subj7_block3_trial5.csv,E016,1,500.0,140.0,640.0,True,10.112,
332,7,6,3,False,soft,m,21,2022-11-10 10:41:45.411461,results/221110_10.41_data_subj7_block3_trial6.csv,E072,0,20.0,320.0,340.0,True,10.896,
333,7,6,3,False,soft,m,21,2022-11-10 10:41:45.411461,results/221110_10.41_data_subj7_block3_trial6.csv,E019,1,440.0,140.0,580.0,False,10.896,
334,7,7,3,False,soft,m,21,2022-11-10 10:41:45.411461,results/221110_10.41_data_subj7_block3_trial7.csv,E015,0,560.0,140.0,700.0,False,10.997,
335,7,7,3,False,soft,m,21,2022-11-10 10:41:45.411461,results/221110_10.41_data_subj7_block3_trial7.csv,E017,1,170.0,50.0,220.0,True,10.997,
336,7,8,3,False,soft,m,21,2022-11-10 10:41:45.411461,results/221110_10.41_data_subj7_block3_trial8.csv,E016,0,500.0,140.0,640.0,False,9.829,
337,7,8,3,False,soft,m,21,2022-11-10 10:41:45.411461,results/221110_10.41_data_subj7_block3_trial8.csv,E079(S41),1,50.0,110.0,160.0,True,9.829,
338,7,9,3,False,soft,m,21,2022-11-10 10:41:45.411461,results/221110_10.41_data_subj7_block3_trial9.csv,E020,0,140.0,50.0,190.0,False,11.68,
339,7,9,3,False,soft,m,21,2022-11-10 10:41:45.411461,results/221110_10.41_data_subj7_block3_trial9.csv,E033,1,80.0,50.0,130.0,True,11.68,
340,7,10,3,False,soft,m,21,2022-11-10 10:41:45.411461,results/221110_10.41_data_subj7_block3_trial10.csv,E034,0,320.0,200.0,520.0,True,11.912,
341,7,10,3,False,soft,m,21,2022-11-10 10:41:45.411461,results/221110_10.41_data_subj7_block3_trial10.csv,E040,1,260.0,200.0,460.0,False,11.912,
342,7,11,3,False,soft,m,21,2022-11-10 10:41:45.411461,results/221110_10.41_data_subj7_block3_trial11.csv,E018,0,260.0,80.0,340.0,False,11.747,
343,7,11,3,False,soft,m,21,2022-11-10 10:41:45.411461,results/221110_10.41_data_subj7_block3_trial11.csv,E017,1,170.0,50.0,220.0,True,11.747,
344,7,12,3,False,soft,m,21,2022-11-10 10:41:45.411461,results/221110_10.41_data_subj7_block3_trial12.csv,E059,0,80.0,140.0,220.0,True,11.33,
345,7,12,3,False,soft,m,21,2022-11-10 10:41:45.411461,results/221110_10.41_data_subj7_block3_trial12.csv,E069,1,20.0,140.0,160.0,False,11.33,
346,7,13,3,False,soft,m,21,2022-11-10 10:41:45.411461,results/221110_10.41_data_subj7_block3_trial13.csv,E046,0,200.0,200.0,400.0,False,12.716,
347,7,13,3,False,soft,m,21,2022-11-10 10:41:45.411461,results/221110_10.41_data_subj7_block3_trial13.csv,E064,1,50.0,140.0,190.0,True,12.716,
348,7,14,3,False,soft,m,21,2022-11-10 10:41:45.411461,results/221110_10.41_data_subj7_block3_trial14.csv,E022,0,380.0,140.0,520.0,True,11.497,
349,7,14,3,False,soft,m,21,2022-11-10 10:41:45.411461,results/221110_10.41_data_subj7_block3_trial14.csv,E028,1,500.0,260.0,760.0,False,11.497,
350,7,15,3,False,soft,m,21,2022-11-10 10:41:45.411461,results/221110_10.41_data_subj7_block3_trial15.csv,E056,0,110.0,170.0,280.0,False,11.545,
351,7,15,3,False,soft,m,21,2022-11-10 10:41:45.411461,results/221110_10.41_data_subj7_block3_trial15.csv,E053,1,110.0,140.0,250.0,True,11.545,
352,7,16,3,False,soft,m,21,2022-11-10 10:41:45.411461,results/221110_10.41_data_subj7_block3_trial16.csv,E021,0,560.0,200.0,760.0,False,12.549,
353,7,16,3,False,soft,m,21,2022-11-10 10:41:45.411461,results/221110_10.41_data_subj7_block3_trial16.csv,E081(S03),1,107.0,210.0,317.0,True,12.549,
354,7,17,3,False,soft,m,21,2022-11-10 10:41:45.411461,results/221110_10.41_data_subj7_block3_trial17.csv,E001,0,560.0,20.0,580.0,True,11.945,
355,7,17,3,False,soft,m,21,2022-11-10 10:41:45.411461,results/221110_10.41_data_subj7_block3_trial17.csv,E050,1,320.0,320.0,640.0,False,11.945,
356,7,18,3,False,soft,m,21,2022-11-10 10:41:45.411461,results/221110_10.41_data_subj7_block3_trial18.csv,E010,0,500.0,80.0,580.0,False,12.381,
357,7,18,3,False,soft,m,21,2022-11-10 10:41:45.411461,results/221110_10.41_data_subj7_block3_trial18.csv,E011,1,440.0,80.0,520.0,True,12.381,
358,7,19,3,False,soft,m,21,2022-11-10 10:41:45.411461,results/221110_10.41_data_subj7_block3_trial19.csv,E026,0,440.0,200.0,640.0,True,12.331,
359,7,19,3,False,soft,m,21,2022-11-10 10:41:45.411461,results/221110_10.41_data_subj7_block3_trial19.csv,E073(S18),1,797.0,116.0,913.0,False,12.331,
360,7,20,3,False,soft,m,21,2022-11-10 10:41:45.411461,results/221110_10.41_data_subj7_block3_trial20.csv,E067,0,80.0,320.0,400.0,True,12.33,
361,7,20,3,False,soft,m,21,2022-11-10 10:41:45.411461,results/221110_10.41_data_subj7_block3_trial20.csv,E029,1,380.0,200.0,580.0,False,12.33,
362,7,21,3,False,soft,m,21,2022-11-10 10:41:45.411461,results/221110_10.41_data_subj7_block3_trial21.csv,E053,0,110.0,140.0,250.0,True,12.165,
363,7,21,3,False,soft,m,21,2022-11-10 10:41:45.411461,results/221110_10.41_data_subj7_block3_trial21.csv,E071,1,20.0,260.0,280.0,False,12.165,
364,7,22,3,False,soft,m,21,2022-11-10 10:41:45.411461,results/221110_10.41_data_subj7_block3_trial22.csv,E052,0,260.0,320.0,580.0,False,12.363,
365,7,22,3,False,soft,m,21,2022-11-10 10:41:45.411461,results/221110_10.41_data_subj7_block3_trial22.csv,E063,1,80.0,200.0,280.0,True,12.363,
366,7,23,3,False,soft,m,21,2022-11-10 10:41:45.411461,results/221110_10.41_data_subj7_block3_trial23.csv,E053,0,110.0,140.0,250.0,True,12.031,
367,7,23,3,False,soft,m,21,2022-11-10 10:41:45.411461,results/221110_10.41_data_subj7_block3_trial23.csv,E039,1,440.0,320.0,760.0,False,12.031,
368,7,24,3,False,soft,m,21,2022-11-10 10:41:45.411461,results/221110_10.41_data_subj7_block3_trial24.csv,E017,0,170.0,50.0,220.0,True,10.43,
369,7,24,3,False,soft,m,21,2022-11-10 10:41:45.411461,results/221110_10.41_data_subj7_block3_trial24.csv,E023,1,200.0,80.0,280.0,False,10.43,
370,7,0,4,False,soft,m,21,2022-11-10 10:41:45.411461,results/221110_10.41_data_subj7_block4_trial0.csv,E037,0,200.0,140.0,340.0,False,9.584,
371,7,0,4,False,soft,m,21,2022-11-10 10:41:45.411461,results/221110_10.41_data_subj7_block4_trial0.csv,E063,1,80.0,200.0,280.0,True,9.584,
372,7,1,4,False,soft,m,21,2022-11-10 10:41:45.411461,results/221110_10.41_data_subj7_block4_trial1.csv,E083(S38),0,107.0,27.0,134.0,True,10.897,
373,7,1,4,False,soft,m,21,2022-11-10 10:41:45.411461,results/221110_10.41_data_subj7_block4_trial1.csv,E002,1,500.0,20.0,520.0,False,10.897,
374,7,2,4,False,soft,m,21,2022-11-10 10:41:45.411461,results/221110_10.41_data_subj7_block4_trial2.csv,E054,0,200.0,260.0,460.0,False,11.235,
375,7,2,4,False,soft,m,21,2022-11-10 10:41:45.411461,results/221110_10.41_data_subj7_block4_trial2.csv,E005,1,380.0,20.0,400.0,True,11.235,
376,7,3,4,False,soft,m,21,2022-11-10 10:41:45.411461,results/221110_10.41_data_subj7_block4_trial3.csv,E033,0,80.0,50.0,130.0,True,11.75,
377,7,3,4,False,soft,m,21,2022-11-10 10:41:45.411461,results/221110_10.41_data_subj7_block4_trial3.csv,E035,1,170.0,110.0,280.0,False,11.75,
378,7,4,4,False,soft,m,21,2022-11-10 10:41:45.411461,results/221110_10.41_data_subj7_block4_trial4.csv,E030,0,260.0,140.0,400.0,True,10.348,
379,7,4,4,False,soft,m,21,2022-11-10 10:41:45.411461,results/221110_10.41_data_subj7_block4_trial4.csv,E045,1,260.0,260.0,520.0,False,10.348,
380,7,5,4,False,soft,m,21,2022-11-10 10:41:45.411461,results/221110_10.41_data_subj7_block4_trial5.csv,E073(S18),0,797.0,116.0,913.0,False,10.848,
381,7,5,4,False,soft,m,21,2022-11-10 10:41:45.411461,results/221110_10.41_data_subj7_block4_trial5.csv,E016,1,500.0,140.0,640.0,True,10.848,
382,7,6,4,False,soft,m,21,2022-11-10 10:41:45.411461,results/221110_10.41_data_subj7_block4_trial6.csv,E072,0,20.0,320.0,340.0,True,12.097,
383,7,6,4,False,soft,m,21,2022-11-10 10:41:45.411461,results/221110_10.41_data_subj7_block4_trial6.csv,E019,1,440.0,140.0,580.0,False,12.097,
384,7,7,4,False,soft,m,21,2022-11-10 10:41:45.411461,results/221110_10.41_data_subj7_block4_trial7.csv,E015,0,560.0,140.0,700.0,False,11.079,
385,7,7,4,False,soft,m,21,2022-11-10 10:41:45.411461,results/221110_10.41_data_subj7_block4_trial7.csv,E017,1,170.0,50.0,220.0,True,11.079,
386,7,8,4,False,soft,m,21,2022-11-10 10:41:45.411461,results/221110_10.41_data_subj7_block4_trial8.csv,E016,0,500.0,140.0,640.0,False,11.761,
387,7,8,4,False,soft,m,21,2022-11-10 10:41:45.411461,results/221110_10.41_data_subj7_block4_trial8.csv,E079(S41),1,50.0,110.0,160.0,True,11.761,
388,7,9,4,False,soft,m,21,2022-11-10 10:41:45.411461,results/221110_10.41_data_subj7_block4_trial9.csv,E020,0,140.0,50.0,190.0,False,10.998,
389,7,9,4,False,soft,m,21,2022-11-10 10:41:45.411461,results/221110_10.41_data_subj7_block4_trial9.csv,E033,1,80.0,50.0,130.0,True,10.998,
390,7,10,4,False,soft,m,21,2022-11-10 10:41:45.411461,results/221110_10.41_data_subj7_block4_trial10.csv,E034,0,320.0,200.0,520.0,True,11.565,
391,7,10,4,False,soft,m,21,2022-11-10 10:41:45.411461,results/221110_10.41_data_subj7_block4_trial10.csv,E040,1,260.0,200.0,460.0,False,11.565,
392,7,11,4,False,soft,m,21,2022-11-10 10:41:45.411461,results/221110_10.41_data_subj7_block4_trial11.csv,E018,0,260.0,80.0,340.0,False,10.762,
393,7,11,4,False,soft,m,21,2022-11-10 10:41:45.411461,results/221110_10.41_data_subj7_block4_trial11.csv,E017,1,170.0,50.0,220.0,True,10.762,
394,7,12,4,False,soft,m,21,2022-11-10 10:41:45.411461,results/221110_10.41_data_subj7_block4_trial12.csv,E059,0,80.0,140.0,220.0,False,11.279,
395,7,12,4,False,soft,m,21,2022-11-10 10:41:45.411461,results/221110_10.41_data_subj7_block4_trial12.csv,E069,1,20.0,140.0,160.0,True,11.279,
396,7,13,4,False,soft,m,21,2022-11-10 10:41:45.411461,results/221110_10.41_data_subj7_block4_trial13.csv,E046,0,200.0,200.0,400.0,False,10.457,
397,7,13,4,False,soft,m,21,2022-11-10 10:41:45.411461,results/221110_10.41_data_subj7_block4_trial13.csv,E064,1,50.0,140.0,190.0,True,10.457,
398,7,14,4,False,soft,m,21,2022-11-10 10:41:45.411461,results/221110_10.41_data_subj7_block4_trial14.csv,E022,0,380.0,140.0,520.0,False,12.946,
399,7,14,4,False,soft,m,21,2022-11-10 10:41:45.411461,results/221110_10.41_data_subj7_block4_trial14.csv,E028,1,500.0,260.0,760.0,True,12.946,
400,7,15,4,False,soft,m,21,2022-11-10 10:41:45.411461,results/221110_10.41_data_subj7_block4_trial15.csv,E056,0,110.0,170.0,280.0,False,11.465,
401,7,15,4,False,soft,m,21,2022-11-10 10:41:45.411461,results/221110_10.41_data_subj7_block4_trial15.csv,E053,1,110.0,140.0,250.0,True,11.465,
402,7,16,4,False,soft,m,21,2022-11-10 10:41:45.411461,results/221110_10.41_data_subj7_block4_trial16.csv,E021,0,560.0,200.0,760.0,False,11.431,
403,7,16,4,False,soft,m,21,2022-11-10 10:41:45.411461,results/221110_10.41_data_subj7_block4_trial16.csv,E081(S03),1,107.0,210.0,317.0,True,11.431,
404,7,17,4,False,soft,m,21,2022-11-10 10:41:45.411461,results/221110_10.41_data_subj7_block4_trial17.csv,E001,0,560.0,20.0,580.0,True,11.549,
405,7,17,4,False,soft,m,21,2022-11-10 10:41:45.411461,results/221110_10.41_data_subj7_block4_trial17.csv,E050,1,320.0,320.0,640.0,False,11.549,
406,7,18,4,False,soft,m,21,2022-11-10 10:41:45.411461,results/221110_10.41_data_subj7_block4_trial18.csv,E010,0,500.0,80.0,580.0,False,10.865,
407,7,18,4,False,soft,m,21,2022-11-10 10:41:45.411461,results/221110_10.41_data_subj7_block4_trial18.csv,E011,1,440.0,80.0,520.0,True,10.865,
408,7,19,4,False,soft,m,21,2022-11-10 10:41:45.411461,results/221110_10.41_data_subj7_block4_trial19.csv,E026,0,440.0,200.0,640.0,False,11.097,
409,7,19,4,False,soft,m,21,2022-11-10 10:41:45.411461,results/221110_10.41_data_subj7_block4_trial19.csv,E073(S18),1,797.0,116.0,913.0,True,11.097,
410,7,20,4,False,soft,m,21,2022-11-10 10:41:45.411461,results/221110_10.41_data_subj7_block4_trial20.csv,E067,0,80.0,320.0,400.0,True,11.862,
411,7,20,4,False,soft,m,21,2022-11-10 10:41:45.411461,results/221110_10.41_data_subj7_block4_trial20.csv,E029,1,380.0,200.0,580.0,False,11.862,
412,7,21,4,False,soft,m,21,2022-11-10 10:41:45.411461,results/221110_10.41_data_subj7_block4_trial21.csv,E053,0,110.0,140.0,250.0,True,11.098,
413,7,21,4,False,soft,m,21,2022-11-10 10:41:45.411461,results/221110_10.41_data_subj7_block4_trial21.csv,E071,1,20.0,260.0,280.0,False,11.098,
414,7,22,4,False,soft,m,21,2022-11-10 10:41:45.411461,results/221110_10.41_data_subj7_block4_trial22.csv,E052,0,260.0,320.0,580.0,False,11.597,
415,7,22,4,False,soft,m,21,2022-11-10 10:41:45.411461,results/221110_10.41_data_subj7_block4_trial22.csv,E063,1,80.0,200.0,280.0,True,11.597,
416,7,23,4,False,soft,m,21,2022-11-10 10:41:45.411461,results/221110_10.41_data_subj7_block4_trial23.csv,E053,0,110.0,140.0,250.0,True,11.083,
417,7,23,4,False,soft,m,21,2022-11-10 10:41:45.411461,results/221110_10.41_data_subj7_block4_trial23.csv,E039,1,440.0,320.0,760.0,False,11.083,
418,7,24,4,False,soft,m,21,2022-11-10 10:41:45.411461,results/221110_10.41_data_subj7_block4_trial24.csv,E017,0,170.0,50.0,220.0,True,12.63,
419,7,24,4,False,soft,m,21,2022-11-10 10:41:45.411461,results/221110_10.41_data_subj7_block4_trial24.csv,E023,1,200.0,80.0,280.0,False,12.63,
430,8,0,1,False,soft,m,21,2022-11-10 14:16:24.653296,results/221110_14.16_data_subj8_block1_trial0.csv,E054,0,200.0,260.0,460.0,False,11.499,
431,8,0,1,False,soft,m,21,2022-11-10 14:16:24.653296,results/221110_14.16_data_subj8_block1_trial0.csv,E081(S03),1,107.0,210.0,317.0,True,11.499,
432,8,1,1,False,soft,m,21,2022-11-10 14:16:24.653296,results/221110_14.16_data_subj8_block1_trial1.csv,E006,0,260.0,20.0,280.0,True,12.315,
433,8,1,1,False,soft,m,21,2022-11-10 14:16:24.653296,results/221110_14.16_data_subj8_block1_trial1.csv,E027,1,170.0,80.0,250.0,False,12.315,
434,8,2,1,False,soft,m,21,2022-11-10 14:16:24.653296,results/221110_14.16_data_subj8_block1_trial2.csv,E076(S43),0,50.0,50.0,100.0,True,10.664,
435,8,2,1,False,soft,m,21,2022-11-10 14:16:24.653296,results/221110_14.16_data_subj8_block1_trial2.csv,E066,1,50.0,170.0,220.0,False,10.664,
436,8,3,1,False,soft,m,21,2022-11-10 14:16:24.653296,results/221110_14.16_data_subj8_block1_trial3.csv,E017,0,170.0,50.0,220.0,False,10.264,
437,8,3,1,False,soft,m,21,2022-11-10 14:16:24.653296,results/221110_14.16_data_subj8_block1_trial3.csv,E002,1,500.0,20.0,520.0,True,10.264,
438,8,4,1,False,soft,m,21,2022-11-10 14:16:24.653296,results/221110_14.16_data_subj8_block1_trial4.csv,E039,0,440.0,320.0,760.0,True,10.847,
439,8,4,1,False,soft,m,21,2022-11-10 14:16:24.653296,results/221110_14.16_data_subj8_block1_trial4.csv,E032,1,440.0,260.0,700.0,False,10.847,
440,8,5,1,False,soft,m,21,2022-11-10 14:16:24.653296,results/221110_14.16_data_subj8_block1_trial5.csv,E076(S43),0,50.0,50.0,100.0,True,11.441,
441,8,5,1,False,soft,m,21,2022-11-10 14:16:24.653296,results/221110_14.16_data_subj8_block1_trial5.csv,E002,1,500.0,20.0,520.0,False,11.441,
442,8,6,1,False,soft,m,21,2022-11-10 14:16:24.653296,results/221110_14.16_data_subj8_block1_trial6.csv,E063,0,80.0,200.0,280.0,False,11.248,
443,8,6,1,False,soft,m,21,2022-11-10 14:16:24.653296,results/221110_14.16_data_subj8_block1_trial6.csv,E064,1,50.0,140.0,190.0,True,11.248,
444,8,7,1,False,soft,m,21,2022-11-10 14:16:24.653296,results/221110_14.16_data_subj8_block1_trial7.csv,E082(S40),0,22.0,113.0,135.0,True,11.029,
445,8,7,1,False,soft,m,21,2022-11-10 14:16:24.653296,results/221110_14.16_data_subj8_block1_trial7.csv,E054,1,200.0,260.0,460.0,False,11.029,
446,8,8,1,False,soft,m,21,2022-11-10 14:16:24.653296,results/221110_14.16_data_subj8_block1_trial8.csv,E059,0,80.0,140.0,220.0,False,10.28,
447,8,8,1,False,soft,m,21,2022-11-10 14:16:24.653296,results/221110_14.16_data_subj8_block1_trial8.csv,E026,1,440.0,200.0,640.0,True,10.28,
448,8,9,1,False,soft,m,21,2022-11-10 14:16:24.653296,results/221110_14.16_data_subj8_block1_trial9.csv,E061,0,80.0,170.0,250.0,True,11.111,
449,8,9,1,False,soft,m,21,2022-11-10 14:16:24.653296,results/221110_14.16_data_subj8_block1_trial9.csv,E026,1,440.0,200.0,640.0,False,11.111,
450,8,10,1,False,soft,m,21,2022-11-10 14:16:24.653296,results/221110_14.16_data_subj8_block1_trial10.csv,E020,0,140.0,50.0,190.0,False,11.297,
451,8,10,1,False,soft,m,21,2022-11-10 14:16:24.653296,results/221110_14.16_data_subj8_block1_trial10.csv,E025,1,320.0,140.0,460.0,True,11.297,
452,8,11,1,False,soft,m,21,2022-11-10 14:16:24.653296,results/221110_14.16_data_subj8_block1_trial11.csv,E025,0,320.0,140.0,460.0,True,10.847,
453,8,11,1,False,soft,m,21,2022-11-10 14:16:24.653296,results/221110_14.16_data_subj8_block1_trial11.csv,E058,1,50.0,80.0,130.0,False,10.847,
454,8,12,1,False,soft,m,21,2022-11-10 14:16:24.653296,results/221110_14.16_data_subj8_block1_trial12.csv,E001,0,560.0,20.0,580.0,True,10.597,
455,8,12,1,False,soft,m,21,2022-11-10 14:16:24.653296,results/221110_14.16_data_subj8_block1_trial12.csv,E046,1,200.0,200.0,400.0,False,10.597,
456,8,13,1,False,soft,m,21,2022-11-10 14:16:24.653296,results/221110_14.16_data_subj8_block1_trial13.csv,E045,0,260.0,260.0,520.0,False,11.464,
457,8,13,1,False,soft,m,21,2022-11-10 14:16:24.653296,results/221110_14.16_data_subj8_block1_trial13.csv,E057,1,200.0,320.0,520.0,True,11.464,
458,8,14,1,False,soft,m,21,2022-11-10 14:16:24.653296,results/221110_14.16_data_subj8_block1_trial14.csv,E048,0,170.0,170.0,340.0,False,10.765,
459,8,14,1,False,soft,m,21,2022-11-10 14:16:24.653296,results/221110_14.16_data_subj8_block1_trial14.csv,E020,1,140.0,50.0,190.0,True,10.765,
460,8,15,1,False,soft,m,21,2022-11-10 14:16:24.653296,results/221110_14.16_data_subj8_block1_trial15.csv,E078(S45),0,80.0,110.0,190.0,True,10.18,
461,8,15,1,False,soft,m,21,2022-11-10 14:16:24.653296,results/221110_14.16_data_subj8_block1_trial15.csv,E060,1,140.0,260.0,400.0,False,10.18,
462,8,16,1,False,soft,m,21,2022-11-10 14:16:24.653296,results/221110_14.16_data_subj8_block1_trial16.csv,E044,0,170.0,140.0,310.0,False,12.23,
463,8,16,1,False,soft,m,21,2022-11-10 14:16:24.653296,results/221110_14.16_data_subj8_block1_trial16.csv,E058,1,50.0,80.0,130.0,True,12.23,
464,8,17,1,False,soft,m,21,2022-11-10 14:16:24.653296,results/221110_14.16_data_subj8_block1_trial17.csv,E035,0,170.0,110.0,280.0,True,9.297,
465,8,17,1,False,soft,m,21,2022-11-10 14:16:24.653296,results/221110_14.16_data_subj8_block1_trial17.csv,E024,1,500.0,200.0,700.0,False,9.297,
466,8,18,1,False,soft,m,21,2022-11-10 14:16:24.653296,results/221110_14.16_data_subj8_block1_trial18.csv,E043,0,320.0,260.0,580.0,False,10.995,
467,8,18,1,False,soft,m,21,2022-11-10 14:16:24.653296,results/221110_14.16_data_subj8_block1_trial18.csv,E041,1,140.0,110.0,250.0,True,10.995,
468,8,19,1,False,soft,m,21,2022-11-10 14:16:24.653296,results/221110_14.16_data_subj8_block1_trial19.csv,E044,0,170.0,140.0,310.0,False,11.479,
469,8,19,1,False,soft,m,21,2022-11-10 14:16:24.653296,results/221110_14.16_data_subj8_block1_trial19.csv,E077(S32),1,110.0,110.0,220.0,True,11.479,
470,8,20,1,False,soft,m,21,2022-11-10 14:16:24.653296,results/221110_14.16_data_subj8_block1_trial20.csv,E075(S42),0,20.0,20.0,40.0,True,9.797,
471,8,20,1,False,soft,m,21,2022-11-10 14:16:24.653296,results/221110_14.16_data_subj8_block1_trial20.csv,E048,1,170.0,170.0,340.0,False,9.797,
472,8,21,1,False,soft,m,21,2022-11-10 14:16:24.653296,results/221110_14.16_data_subj8_block1_trial21.csv,E020,0,140.0,50.0,190.0,False,13.947,
473,8,21,1,False,soft,m,21,2022-11-10 14:16:24.653296,results/221110_14.16_data_subj8_block1_trial21.csv,E079(S41),1,50.0,110.0,160.0,True,13.947,
474,8,22,1,False,soft,m,21,2022-11-10 14:16:24.653296,results/221110_14.16_data_subj8_block1_trial22.csv,E084(S12),0,206.0,113.0,319.0,True,9.996,
475,8,22,1,False,soft,m,21,2022-11-10 14:16:24.653296,results/221110_14.16_data_subj8_block1_trial22.csv,E037,1,200.0,140.0,340.0,False,9.996,
476,8,23,1,False,soft,m,21,2022-11-10 14:16:24.653296,results/221110_14.16_data_subj8_block1_trial23.csv,E034,0,320.0,200.0,520.0,True,10.565,
477,8,23,1,False,soft,m,21,2022-11-10 14:16:24.653296,results/221110_14.16_data_subj8_block1_trial23.csv,E060,1,140.0,260.0,400.0,False,10.565,
478,8,24,1,False,soft,m,21,2022-11-10 14:16:24.653296,results/221110_14.16_data_subj8_block1_trial24.csv,E029,0,380.0,200.0,580.0,False,10.364,
479,8,24,1,False,soft,m,21,2022-11-10 14:16:24.653296,results/221110_14.16_data_subj8_block1_trial24.csv,E031,1,140.0,80.0,220.0,True,10.364,
480,8,0,2,False,soft,m,21,2022-11-10 14:16:24.653296,results/221110_14.16_data_subj8_block2_trial0.csv,E056,0,110.0,170.0,280.0,False,11.03,
481,8,0,2,False,soft,m,21,2022-11-10 14:16:24.653296,results/221110_14.16_data_subj8_block2_trial0.csv,E064,1,50.0,140.0,190.0,True,11.03,
482,8,1,2,False,soft,m,21,2022-11-10 14:16:24.653296,results/221110_14.16_data_subj8_block2_trial1.csv,E050,0,320.0,320.0,640.0,True,10.117,
483,8,1,2,False,soft,m,21,2022-11-10 14:16:24.653296,results/221110_14.16_data_subj8_block2_trial1.csv,E060,1,140.0,260.0,400.0,False,10.117,
484,8,2,2,False,soft,m,21,2022-11-10 14:16:24.653296,results/221110_14.16_data_subj8_block2_trial2.csv,E055,0,140.0,200.0,340.0,False,10.63,
485,8,2,2,False,soft,m,21,2022-11-10 14:16:24.653296,results/221110_14.16_data_subj8_block2_trial2.csv,E068,1,20.0,80.0,100.0,True,10.63,
486,8,3,2,False,soft,m,21,2022-11-10 14:16:24.653296,results/221110_14.16_data_subj8_block2_trial3.csv,E014,0,320.0,80.0,400.0,True,9.797,
487,8,3,2,False,soft,m,21,2022-11-10 14:16:24.653296,results/221110_14.16_data_subj8_block2_trial3.csv,E082(S40),1,22.0,113.0,135.0,False,9.797,
488,8,4,2,False,soft,m,21,2022-11-10 14:16:24.653296,results/221110_14.16_data_subj8_block2_trial4.csv,E076(S43),0,50.0,50.0,100.0,True,9.292,
489,8,4,2,False,soft,m,21,2022-11-10 14:16:24.653296,results/221110_14.16_data_subj8_block2_trial4.csv,E058,1,50.0,80.0,130.0,False,9.292,
490,8,5,2,False,soft,m,21,2022-11-10 14:16:24.653296,results/221110_14.16_data_subj8_block2_trial5.csv,E060,0,140.0,260.0,400.0,False,9.897,
491,8,5,2,False,soft,m,21,2022-11-10 14:16:24.653296,results/221110_14.16_data_subj8_block2_trial5.csv,E078(S45),1,80.0,110.0,190.0,True,9.897,
492,8,6,2,False,soft,m,21,2022-11-10 14:16:24.653296,results/221110_14.16_data_subj8_block2_trial6.csv,E069,0,20.0,140.0,160.0,False,8.813,
493,8,6,2,False,soft,m,21,2022-11-10 14:16:24.653296,results/221110_14.16_data_subj8_block2_trial6.csv,E041,1,140.0,110.0,250.0,True,8.813,
494,8,7,2,False,soft,m,21,2022-11-10 14:16:24.653296,results/221110_14.16_data_subj8_block2_trial7.csv,E055,0,140.0,200.0,340.0,False,9.38,
495,8,7,2,False,soft,m,21,2022-11-10 14:16:24.653296,results/221110_14.16_data_subj8_block2_trial7.csv,E025,1,320.0,140.0,460.0,True,9.38,
496,8,8,2,False,soft,m,21,2022-11-10 14:16:24.653296,results/221110_14.16_data_subj8_block2_trial8.csv,E033,0,80.0,50.0,130.0,True,9.247,
497,8,8,2,False,soft,m,21,2022-11-10 14:16:24.653296,results/221110_14.16_data_subj8_block2_trial8.csv,E062,1,140.0,320.0,460.0,False,9.247,
498,8,9,2,False,soft,m,21,2022-11-10 14:16:24.653296,results/221110_14.16_data_subj8_block2_trial9.csv,E013,0,80.0,20.0,100.0,True,9.33,
499,8,9,2,False,soft,m,21,2022-11-10 14:16:24.653296,results/221110_14.16_data_subj8_block2_trial9.csv,E039,1,440.0,320.0,760.0,False,9.33,
500,8,10,2,False,soft,m,21,2022-11-10 14:16:24.653296,results/221110_14.16_data_subj8_block2_trial10.csv,E024,0,500.0,200.0,700.0,True,9.348,
501,8,10,2,False,soft,m,21,2022-11-10 14:16:24.653296,results/221110_14.16_data_subj8_block2_trial10.csv,E042,1,380.0,320.0,700.0,False,9.348,
502,8,11,2,False,soft,m,21,2022-11-10 14:16:24.653296,results/221110_14.16_data_subj8_block2_trial11.csv,E022,0,380.0,140.0,520.0,True,9.582,
503,8,11,2,False,soft,m,21,2022-11-10 14:16:24.653296,results/221110_14.16_data_subj8_block2_trial11.csv,E050,1,320.0,320.0,640.0,False,9.582,
504,8,12,2,False,soft,m,21,2022-11-10 14:16:24.653296,results/221110_14.16_data_subj8_block2_trial12.csv,E077(S32),0,110.0,110.0,220.0,False,9.06,
505,8,12,2,False,soft,m,21,2022-11-10 14:16:24.653296,results/221110_14.16_data_subj8_block2_trial12.csv,E033,1,80.0,50.0,130.0,True,9.06,
506,8,13,2,False,soft,m,21,2022-11-10 14:16:24.653296,results/221110_14.16_data_subj8_block2_trial13.csv,E063,0,80.0,200.0,280.0,True,9.564,
507,8,13,2,False,soft,m,21,2022-11-10 14:16:24.653296,results/221110_14.16_data_subj8_block2_trial13.csv,E036,1,380.0,260.0,640.0,False,9.564,
508,8,14,2,False,soft,m,21,2022-11-10 14:16:24.653296,results/221110_14.16_data_subj8_block2_trial14.csv,E017,0,170.0,50.0,220.0,False,9.098,
509,8,14,2,False,soft,m,21,2022-11-10 14:16:24.653296,results/221110_14.16_data_subj8_block2_trial14.csv,E014,1,320.0,80.0,400.0,True,9.098,
510,8,15,2,False,soft,m,21,2022-11-10 14:16:24.653296,results/221110_14.16_data_subj8_block2_trial15.csv,E084(S12),0,206.0,113.0,319.0,False,9.897,
511,8,15,2,False,soft,m,21,2022-11-10 14:16:24.653296,results/221110_14.16_data_subj8_block2_trial15.csv,E005,1,380.0,20.0,400.0,True,9.897,
512,8,16,2,False,soft,m,21,2022-11-10 14:16:24.653296,results/221110_14.16_data_subj8_block2_trial16.csv,E015,0,560.0,140.0,700.0,True,11.681,
513,8,16,2,False,soft,m,21,2022-11-10 14:16:24.653296,results/221110_14.16_data_subj8_block2_trial16.csv,E049,1,80.0,80.0,160.0,False,11.681,
514,8,17,2,False,soft,m,21,2022-11-10 14:16:24.653296,results/221110_14.16_data_subj8_block2_trial17.csv,E013,0,80.0,20.0,100.0,True,8.98,
515,8,17,2,False,soft,m,21,2022-11-10 14:16:24.653296,results/221110_14.16_data_subj8_block2_trial17.csv,E082(S40),1,22.0,113.0,135.0,False,8.98,
516,8,18,2,False,soft,m,21,2022-11-10 14:16:24.653296,results/221110_14.16_data_subj8_block2_trial18.csv,E046,0,200.0,200.0,400.0,False,9.93,
517,8,18,2,False,soft,m,21,2022-11-10 14:16:24.653296,results/221110_14.16_data_subj8_block2_trial18.csv,E021,1,560.0,200.0,760.0,True,9.93,
518,8,19,2,False,soft,m,21,2022-11-10 14:16:24.653296,results/221110_14.16_data_subj8_block2_trial19.csv,E025,0,320.0,140.0,460.0,False,9.931,
519,8,19,2,False,soft,m,21,2022-11-10 14:16:24.653296,results/221110_14.16_data_subj8_block2_trial19.csv,E068,1,20.0,80.0,100.0,True,9.931,
520,8,20,2,False,soft,m,21,2022-11-10 14:16:24.653296,results/221110_14.16_data_subj8_block2_trial20.csv,E036,0,380.0,260.0,640.0,False,10.631,
521,8,20,2,False,soft,m,21,2022-11-10 14:16:24.653296,results/221110_14.16_data_subj8_block2_trial20.csv,E009,1,560.0,80.0,640.0,True,10.631,
522,8,21,2,False,soft,m,21,2022-11-10 14:16:24.653296,results/221110_14.16_data_subj8_block2_trial21.csv,E027,0,170.0,80.0,250.0,False,10.248,
523,8,21,2,False,soft,m,21,2022-11-10 14:16:24.653296,results/221110_14.16_data_subj8_block2_trial21.csv,E017,1,170.0,50.0,220.0,True,10.248,
524,8,22,2,False,soft,m,21,2022-11-10 14:16:24.653296,results/221110_14.16_data_subj8_block2_trial22.csv,E033,0,80.0,50.0,130.0,True,9.081,
525,8,22,2,False,soft,m,21,2022-11-10 14:16:24.653296,results/221110_14.16_data_subj8_block2_trial22.csv,E022,1,380.0,140.0,520.0,False,9.081,
526,8,23,2,False,soft,m,21,2022-11-10 14:16:24.653296,results/221110_14.16_data_subj8_block2_trial23.csv,E059,0,80.0,140.0,220.0,False,10.93,
527,8,23,2,False,soft,m,21,2022-11-10 14:16:24.653296,results/221110_14.16_data_subj8_block2_trial23.csv,E040,1,260.0,200.0,460.0,True,10.93,
528,8,24,2,False,soft,m,21,2022-11-10 14:16:24.653296,results/221110_14.16_data_subj8_block2_trial24.csv,E039,0,440.0,320.0,760.0,False,12.912,
529,8,24,2,False,soft,m,21,2022-11-10 14:16:24.653296,results/221110_14.16_data_subj8_block2_trial24.csv,E072,1,20.0,320.0,340.0,True,12.912,
530,8,0,3,False,soft,m,21,2022-11-10 14:16:24.653296,results/221110_14.16_data_subj8_block3_trial0.csv,E030,0,260.0,140.0,400.0,True,0.734,
531,8,0,3,False,soft,m,21,2022-11-10 14:16:24.653296,results/221110_14.16_data_subj8_block3_trial0.csv,E030,1,260.0,140.0,400.0,False,0.734,
532,8,1,3,False,soft,m,21,2022-11-10 14:16:24.653296,results/221110_14.16_data_subj8_block3_trial1.csv,E079(S41),0,50.0,110.0,160.0,True,9.531,
533,8,1,3,False,soft,m,21,2022-11-10 14:16:24.653296,results/221110_14.16_data_subj8_block3_trial1.csv,E056,1,110.0,170.0,280.0,False,9.531,
534,8,2,3,False,soft,m,21,2022-11-10 14:16:24.653296,results/221110_14.16_data_subj8_block3_trial2.csv,E037,0,200.0,140.0,340.0,True,9.081,
535,8,2,3,False,soft,m,21,2022-11-10 14:16:24.653296,results/221110_14.16_data_subj8_block3_trial2.csv,E045,1,260.0,260.0,520.0,False,9.081,
536,8,3,3,False,soft,m,21,2022-11-10 14:16:24.653296,results/221110_14.16_data_subj8_block3_trial3.csv,E005,0,380.0,20.0,400.0,True,9.047,
537,8,3,3,False,soft,m,21,2022-11-10 14:16:24.653296,results/221110_14.16_data_subj8_block3_trial3.csv,E044,1,170.0,140.0,310.0,False,9.047,
538,8,4,3,False,soft,m,21,2022-11-10 14:16:24.653296,results/221110_14.16_data_subj8_block3_trial4.csv,E009,0,560.0,80.0,640.0,True,9.796,
539,8,4,3,False,soft,m,21,2022-11-10 14:16:24.653296,results/221110_14.16_data_subj8_block3_trial4.csv,E030,1,260.0,140.0,400.0,False,9.796,
540,8,5,3,False,soft,m,21,2022-11-10 14:16:24.653296,results/221110_14.16_data_subj8_block3_trial5.csv,E076(S43),0,50.0,50.0,100.0,False,9.264,
541,8,5,3,False,soft,m,21,2022-11-10 14:16:24.653296,results/221110_14.16_data_subj8_block3_trial5.csv,E005,1,380.0,20.0,400.0,True,9.264,
542,8,6,3,False,soft,m,21,2022-11-10 14:16:24.653296,results/221110_14.16_data_subj8_block3_trial6.csv,E081(S03),0,107.0,210.0,317.0,False,8.831,
543,8,6,3,False,soft,m,21,2022-11-10 14:16:24.653296,results/221110_14.16_data_subj8_block3_trial6.csv,E046,1,200.0,200.0,400.0,True,8.831,
544,8,7,3,False,soft,m,21,2022-11-10 14:16:24.653296,results/221110_14.16_data_subj8_block3_trial7.csv,E017,0,170.0,50.0,220.0,True,8.039,
545,8,7,3,False,soft,m,21,2022-11-10 14:16:24.653296,results/221110_14.16_data_subj8_block3_trial7.csv,E060,1,140.0,260.0,400.0,False,8.039,
546,8,8,3,False,soft,m,21,2022-11-10 14:16:24.653296,results/221110_14.16_data_subj8_block3_trial8.csv,E006,0,260.0,20.0,280.0,True,9.464,
547,8,8,3,False,soft,m,21,2022-11-10 14:16:24.653296,results/221110_14.16_data_subj8_block3_trial8.csv,E056,1,110.0,170.0,280.0,False,9.464,
548,8,9,3,False,soft,m,21,2022-11-10 14:16:24.653296,results/221110_14.16_data_subj8_block3_trial9.csv,E039,0,440.0,320.0,760.0,False,10.38,
549,8,9,3,False,soft,m,21,2022-11-10 14:16:24.653296,results/221110_14.16_data_subj8_block3_trial9.csv,E029,1,380.0,200.0,580.0,True,10.38,
550,8,10,3,False,soft,m,21,2022-11-10 14:16:24.653296,results/221110_14.16_data_subj8_block3_trial10.csv,E041,0,140.0,110.0,250.0,False,8.365,
551,8,10,3,False,soft,m,21,2022-11-10 14:16:24.653296,results/221110_14.16_data_subj8_block3_trial10.csv,E083(S38),1,107.0,27.0,134.0,True,8.365,
552,8,11,3,False,soft,m,21,2022-11-10 14:16:24.653296,results/221110_14.16_data_subj8_block3_trial11.csv,E002,0,500.0,20.0,520.0,True,7.895,
553,8,11,3,False,soft,m,21,2022-11-10 14:16:24.653296,results/221110_14.16_data_subj8_block3_trial11.csv,E067,1,80.0,320.0,400.0,False,7.895,
554,8,12,3,False,soft,m,21,2022-11-10 14:16:24.653296,results/221110_14.16_data_subj8_block3_trial12.csv,E017,0,170.0,50.0,220.0,True,7.598,
555,8,12,3,False,soft,m,21,2022-11-10 14:16:24.653296,results/221110_14.16_data_subj8_block3_trial12.csv,E034,1,320.0,200.0,520.0,False,7.598,
556,8,13,3,False,soft,m,21,2022-11-10 14:16:24.653296,results/221110_14.16_data_subj8_block3_trial13.csv,E022,0,380.0,140.0,520.0,True,7.48,
557,8,13,3,False,soft,m,21,2022-11-10 14:16:24.653296,results/221110_14.16_data_subj8_block3_trial13.csv,E027,1,170.0,80.0,250.0,False,7.48,
558,8,14,3,False,soft,m,21,2022-11-10 14:16:24.653296,results/221110_14.16_data_subj8_block3_trial14.csv,E014,0,320.0,80.0,400.0,False,10.13,
559,8,14,3,False,soft,m,21,2022-11-10 14:16:24.653296,results/221110_14.16_data_subj8_block3_trial14.csv,E018,1,260.0,80.0,340.0,True,10.13,
560,8,15,3,False,soft,m,21,2022-11-10 14:16:24.653296,results/221110_14.16_data_subj8_block3_trial15.csv,E069,0,20.0,140.0,160.0,False,9.297,
561,8,15,3,False,soft,m,21,2022-11-10 14:16:24.653296,results/221110_14.16_data_subj8_block3_trial15.csv,E024,1,500.0,200.0,700.0,True,9.297,
562,8,16,3,False,soft,m,21,2022-11-10 14:16:24.653296,results/221110_14.16_data_subj8_block3_trial16.csv,E048,0,170.0,170.0,340.0,True,8.797,
563,8,16,3,False,soft,m,21,2022-11-10 14:16:24.653296,results/221110_14.16_data_subj8_block3_trial16.csv,E054,1,200.0,260.0,460.0,False,8.797,
564,8,17,3,False,soft,m,21,2022-11-10 14:16:24.653296,results/221110_14.16_data_subj8_block3_trial17.csv,E002,0,500.0,20.0,520.0,True,9.313,
565,8,17,3,False,soft,m,21,2022-11-10 14:16:24.653296,results/221110_14.16_data_subj8_block3_trial17.csv,E003,1,440.0,20.0,460.0,False,9.313,
566,8,18,3,False,soft,m,21,2022-11-10 14:16:24.653296,results/221110_14.16_data_subj8_block3_trial18.csv,E037,0,200.0,140.0,340.0,True,10.164,
567,8,18,3,False,soft,m,21,2022-11-10 14:16:24.653296,results/221110_14.16_data_subj8_block3_trial18.csv,E063,1,80.0,200.0,280.0,False,10.164,
568,8,19,3,False,soft,m,21,2022-11-10 14:16:24.653296,results/221110_14.16_data_subj8_block3_trial19.csv,E004,0,320.0,20.0,340.0,True,8.131,
569,8,19,3,False,soft,m,21,2022-11-10 14:16:24.653296,results/221110_14.16_data_subj8_block3_trial19.csv,E024,1,500.0,200.0,700.0,False,8.131,
570,8,20,3,False,soft,m,21,2022-11-10 14:16:24.653296,results/221110_14.16_data_subj8_block3_trial20.csv,E020,0,140.0,50.0,190.0,False,8.947,
571,8,20,3,False,soft,m,21,2022-11-10 14:16:24.653296,results/221110_14.16_data_subj8_block3_trial20.csv,E001,1,560.0,20.0,580.0,True,8.947,
572,8,21,3,False,soft,m,21,2022-11-10 14:16:24.653296,results/221110_14.16_data_subj8_block3_trial21.csv,E044,0,170.0,140.0,310.0,False,9.674,
573,8,21,3,False,soft,m,21,2022-11-10 14:16:24.653296,results/221110_14.16_data_subj8_block3_trial21.csv,E074(S39),1,110.0,50.0,160.0,True,9.674,
574,8,22,3,False,soft,m,21,2022-11-10 14:16:24.653296,results/221110_14.16_data_subj8_block3_trial22.csv,E040,0,260.0,200.0,460.0,False,10.097,
575,8,22,3,False,soft,m,21,2022-11-10 14:16:24.653296,results/221110_14.16_data_subj8_block3_trial22.csv,E082(S40),1,22.0,113.0,135.0,True,10.097,
576,8,23,3,False,soft,m,21,2022-11-10 14:16:24.653296,results/221110_14.16_data_subj8_block3_trial23.csv,E053,0,110.0,140.0,250.0,False,9.396,
577,8,23,3,False,soft,m,21,2022-11-10 14:16:24.653296,results/221110_14.16_data_subj8_block3_trial23.csv,E037,1,200.0,140.0,340.0,True,9.396,
578,8,24,3,False,soft,m,21,2022-11-10 14:16:24.653296,results/221110_14.16_data_subj8_block3_trial24.csv,E028,0,500.0,260.0,760.0,False,8.863,
579,8,24,3,False,soft,m,21,2022-11-10 14:16:24.653296,results/221110_14.16_data_subj8_block3_trial24.csv,E025,1,320.0,140.0,460.0,True,8.863,
580,8,0,4,False,soft,m,21,2022-11-10 14:16:24.653296,results/221110_14.16_data_subj8_block4_trial0.csv,E030,0,260.0,140.0,400.0,True,1.566,
581,8,0,4,False,soft,m,21,2022-11-10 14:16:24.653296,results/221110_14.16_data_subj8_block4_trial0.csv,E030,1,260.0,140.0,400.0,False,1.566,
582,8,1,4,False,soft,m,21,2022-11-10 14:16:24.653296,results/221110_14.16_data_subj8_block4_trial1.csv,E079(S41),0,50.0,110.0,160.0,True,9.799,
583,8,1,4,False,soft,m,21,2022-11-10 14:16:24.653296,results/221110_14.16_data_subj8_block4_trial1.csv,E056,1,110.0,170.0,280.0,False,9.799,
584,8,2,4,False,soft,m,21,2022-11-10 14:16:24.653296,results/221110_14.16_data_subj8_block4_trial2.csv,E037,0,200.0,140.0,340.0,True,9.663,
585,8,2,4,False,soft,m,21,2022-11-10 14:16:24.653296,results/221110_14.16_data_subj8_block4_trial2.csv,E045,1,260.0,260.0,520.0,False,9.663,
586,8,3,4,False,soft,m,21,2022-11-10 14:16:24.653296,results/221110_14.16_data_subj8_block4_trial3.csv,E005,0,380.0,20.0,400.0,True,7.425,
587,8,3,4,False,soft,m,21,2022-11-10 14:16:24.653296,results/221110_14.16_data_subj8_block4_trial3.csv,E044,1,170.0,140.0,310.0,False,7.425,
588,8,4,4,False,soft,m,21,2022-11-10 14:16:24.653296,results/221110_14.16_data_subj8_block4_trial4.csv,E009,0,560.0,80.0,640.0,True,8.431,
589,8,4,4,False,soft,m,21,2022-11-10 14:16:24.653296,results/221110_14.16_data_subj8_block4_trial4.csv,E030,1,260.0,140.0,400.0,False,8.431,
590,8,5,4,False,soft,m,21,2022-11-10 14:16:24.653296,results/221110_14.16_data_subj8_block4_trial5.csv,E076(S43),0,50.0,50.0,100.0,True,9.148,
591,8,5,4,False,soft,m,21,2022-11-10 14:16:24.653296,results/221110_14.16_data_subj8_block4_trial5.csv,E005,1,380.0,20.0,400.0,False,9.148,
592,8,6,4,False,soft,m,21,2022-11-10 14:16:24.653296,results/221110_14.16_data_subj8_block4_trial6.csv,E081(S03),0,107.0,210.0,317.0,False,8.631,
593,8,6,4,False,soft,m,21,2022-11-10 14:16:24.653296,results/221110_14.16_data_subj8_block4_trial6.csv,E046,1,200.0,200.0,400.0,True,8.631,
594,8,7,4,False,soft,m,21,2022-11-10 14:16:24.653296,results/221110_14.16_data_subj8_block4_trial7.csv,E017,0,170.0,50.0,220.0,True,7.314,
595,8,7,4,False,soft,m,21,2022-11-10 14:16:24.653296,results/221110_14.16_data_subj8_block4_trial7.csv,E060,1,140.0,260.0,400.0,False,7.314,
596,8,8,4,False,soft,m,21,2022-11-10 14:16:24.653296,results/221110_14.16_data_subj8_block4_trial8.csv,E006,0,260.0,20.0,280.0,True,6.711,
597,8,8,4,False,soft,m,21,2022-11-10 14:16:24.653296,results/221110_14.16_data_subj8_block4_trial8.csv,E056,1,110.0,170.0,280.0,False,6.711,
598,8,9,4,False,soft,m,21,2022-11-10 14:16:24.653296,results/221110_14.16_data_subj8_block4_trial9.csv,E039,0,440.0,320.0,760.0,False,9.83,
599,8,9,4,False,soft,m,21,2022-11-10 14:16:24.653296,results/221110_14.16_data_subj8_block4_trial9.csv,E029,1,380.0,200.0,580.0,True,9.83,
600,8,10,4,False,soft,m,21,2022-11-10 14:16:24.653296,results/221110_14.16_data_subj8_block4_trial10.csv,E041,0,140.0,110.0,250.0,True,10.131,
601,8,10,4,False,soft,m,21,2022-11-10 14:16:24.653296,results/221110_14.16_data_subj8_block4_trial10.csv,E083(S38),1,107.0,27.0,134.0,False,10.131,
602,8,11,4,False,soft,m,21,2022-11-10 14:16:24.653296,results/221110_14.16_data_subj8_block4_trial11.csv,E002,0,500.0,20.0,520.0,True,9.082,
603,8,11,4,False,soft,m,21,2022-11-10 14:16:24.653296,results/221110_14.16_data_subj8_block4_trial11.csv,E067,1,80.0,320.0,400.0,False,9.082,
604,8,12,4,False,soft,m,21,2022-11-10 14:16:24.653296,results/221110_14.16_data_subj8_block4_trial12.csv,E017,0,170.0,50.0,220.0,True,9.215,
605,8,12,4,False,soft,m,21,2022-11-10 14:16:24.653296,results/221110_14.16_data_subj8_block4_trial12.csv,E034,1,320.0,200.0,520.0,False,9.215,
606,8,13,4,False,soft,m,21,2022-11-10 14:16:24.653296,results/221110_14.16_data_subj8_block4_trial13.csv,E022,0,380.0,140.0,520.0,False,9.564,
607,8,13,4,False,soft,m,21,2022-11-10 14:16:24.653296,results/221110_14.16_data_subj8_block4_trial13.csv,E027,1,170.0,80.0,250.0,True,9.564,
608,8,14,4,False,soft,m,21,2022-11-10 14:16:24.653296,results/221110_14.16_data_subj8_block4_trial14.csv,E014,0,320.0,80.0,400.0,True,7.816,
609,8,14,4,False,soft,m,21,2022-11-10 14:16:24.653296,results/221110_14.16_data_subj8_block4_trial14.csv,E018,1,260.0,80.0,340.0,False,7.816,
610,8,15,4,False,soft,m,21,2022-11-10 14:16:24.653296,results/221110_14.16_data_subj8_block4_trial15.csv,E069,0,20.0,140.0,160.0,True,9.945,
611,8,15,4,False,soft,m,21,2022-11-10 14:16:24.653296,results/221110_14.16_data_subj8_block4_trial15.csv,E024,1,500.0,200.0,700.0,False,9.945,
612,8,16,4,False,soft,m,21,2022-11-10 14:16:24.653296,results/221110_14.16_data_subj8_block4_trial16.csv,E048,0,170.0,170.0,340.0,True,7.998,
613,8,16,4,False,soft,m,21,2022-11-10 14:16:24.653296,results/221110_14.16_data_subj8_block4_trial16.csv,E054,1,200.0,260.0,460.0,False,7.998,
614,8,17,4,False,soft,m,21,2022-11-10 14:16:24.653296,results/221110_14.16_data_subj8_block4_trial17.csv,E002,0,500.0,20.0,520.0,False,7.88,
615,8,17,4,False,soft,m,21,2022-11-10 14:16:24.653296,results/221110_14.16_data_subj8_block4_trial17.csv,E003,1,440.0,20.0,460.0,True,7.88,
616,8,18,4,False,soft,m,21,2022-11-10 14:16:24.653296,results/221110_14.16_data_subj8_block4_trial18.csv,E037,0,200.0,140.0,340.0,True,8.331,
617,8,18,4,False,soft,m,21,2022-11-10 14:16:24.653296,results/221110_14.16_data_subj8_block4_trial18.csv,E063,1,80.0,200.0,280.0,False,8.331,
618,8,19,4,False,soft,m,21,2022-11-10 14:16:24.653296,results/221110_14.16_data_subj8_block4_trial19.csv,E004,0,320.0,20.0,340.0,True,8.564,
619,8,19,4,False,soft,m,21,2022-11-10 14:16:24.653296,results/221110_14.16_data_subj8_block4_trial19.csv,E024,1,500.0,200.0,700.0,False,8.564,
620,8,20,4,False,soft,m,21,2022-11-10 14:16:24.653296,results/221110_14.16_data_subj8_block4_trial20.csv,E020,0,140.0,50.0,190.0,False,9.698,
621,8,20,4,False,soft,m,21,2022-11-10 14:16:24.653296,results/221110_14.16_data_subj8_block4_trial20.csv,E001,1,560.0,20.0,580.0,True,9.698,
622,8,21,4,False,soft,m,21,2022-11-10 14:16:24.653296,results/221110_14.16_data_subj8_block4_trial21.csv,E044,0,170.0,140.0,310.0,False,8.38,
623,8,21,4,False,soft,m,21,2022-11-10 14:16:24.653296,results/221110_14.16_data_subj8_block4_trial21.csv,E074(S39),1,110.0,50.0,160.0,True,8.38,
624,8,22,4,False,soft,m,21,2022-11-10 14:16:24.653296,results/221110_14.16_data_subj8_block4_trial22.csv,E040,0,260.0,200.0,460.0,False,9.547,
625,8,22,4,False,soft,m,21,2022-11-10 14:16:24.653296,results/221110_14.16_data_subj8_block4_trial22.csv,E082(S40),1,22.0,113.0,135.0,True,9.547,
626,8,23,4,False,soft,m,21,2022-11-10 14:16:24.653296,results/221110_14.16_data_subj8_block4_trial23.csv,E053,0,110.0,140.0,250.0,True,8.248,
627,8,23,4,False,soft,m,21,2022-11-10 14:16:24.653296,results/221110_14.16_data_subj8_block4_trial23.csv,E037,1,200.0,140.0,340.0,False,8.248,
628,8,24,4,False,soft,m,21,2022-11-10 14:16:24.653296,results/221110_14.16_data_subj8_block4_trial24.csv,E028,0,500.0,260.0,760.0,False,8.498,
629,8,24,4,False,soft,m,21,2022-11-10 14:16:24.653296,results/221110_14.16_data_subj8_block4_trial24.csv,E025,1,320.0,140.0,460.0,True,8.498,
640,9,0,1,False,rug,f,20,2022-11-15 10:24:14.731452,results/221115_10.24_data_subj9_block1_trial0.csv,E042,0,380.0,320.0,700.0,True,8.264,
641,9,0,1,False,rug,f,20,2022-11-15 10:24:14.731452,results/221115_10.24_data_subj9_block1_trial0.csv,E067,1,80.0,320.0,400.0,False,8.264,
642,9,1,1,False,rug,f,20,2022-11-15 10:24:14.731452,results/221115_10.24_data_subj9_block1_trial1.csv,E076(S43),0,50.0,50.0,100.0,True,7.165,
643,9,1,1,False,rug,f,20,2022-11-15 10:24:14.731452,results/221115_10.24_data_subj9_block1_trial1.csv,E059,1,80.0,140.0,220.0,False,7.165,
644,9,2,1,False,rug,f,20,2022-11-15 10:24:14.731452,results/221115_10.24_data_subj9_block1_trial2.csv,E064,0,50.0,140.0,190.0,True,7.116,
645,9,2,1,False,rug,f,20,2022-11-15 10:24:14.731452,results/221115_10.24_data_subj9_block1_trial2.csv,E075(S42),1,20.0,20.0,40.0,False,7.116,
646,9,3,1,False,rug,f,20,2022-11-15 10:24:14.731452,results/221115_10.24_data_subj9_block1_trial3.csv,E022,0,380.0,140.0,520.0,False,7.149,
647,9,3,1,False,rug,f,20,2022-11-15 10:24:14.731452,results/221115_10.24_data_subj9_block1_trial3.csv,E021,1,560.0,200.0,760.0,True,7.149,
648,9,4,1,False,rug,f,20,2022-11-15 10:24:14.731452,results/221115_10.24_data_subj9_block1_trial4.csv,E019,0,440.0,140.0,580.0,False,5.896,
649,9,4,1,False,rug,f,20,2022-11-15 10:24:14.731452,results/221115_10.24_data_subj9_block1_trial4.csv,E011,1,440.0,80.0,520.0,True,5.896,
650,9,5,1,False,rug,f,20,2022-11-15 10:24:14.731452,results/221115_10.24_data_subj9_block1_trial5.csv,E027,0,170.0,80.0,250.0,False,7.114,
651,9,5,1,False,rug,f,20,2022-11-15 10:24:14.731452,results/221115_10.24_data_subj9_block1_trial5.csv,E057,1,200.0,320.0,520.0,True,7.114,
652,9,6,1,False,rug,f,20,2022-11-15 10:24:14.731452,results/221115_10.24_data_subj9_block1_trial6.csv,E026,0,440.0,200.0,640.0,True,5.748,
653,9,6,1,False,rug,f,20,2022-11-15 10:24:14.731452,results/221115_10.24_data_subj9_block1_trial6.csv,E014,1,320.0,80.0,400.0,False,5.748,
654,9,7,1,False,rug,f,20,2022-11-15 10:24:14.731452,results/221115_10.24_data_subj9_block1_trial7.csv,E078(S45),0,80.0,110.0,190.0,False,4.949,
655,9,7,1,False,rug,f,20,2022-11-15 10:24:14.731452,results/221115_10.24_data_subj9_block1_trial7.csv,E040,1,260.0,200.0,460.0,True,4.949,
656,9,8,1,False,rug,f,20,2022-11-15 10:24:14.731452,results/221115_10.24_data_subj9_block1_trial8.csv,E001,0,560.0,20.0,580.0,True,6.498,
657,9,8,1,False,rug,f,20,2022-11-15 10:24:14.731452,results/221115_10.24_data_subj9_block1_trial8.csv,E058,1,50.0,80.0,130.0,False,6.498,
658,9,9,1,False,rug,f,20,2022-11-15 10:24:14.731452,results/221115_10.24_data_subj9_block1_trial9.csv,E032,0,440.0,260.0,700.0,True,6.115,
659,9,9,1,False,rug,f,20,2022-11-15 10:24:14.731452,results/221115_10.24_data_subj9_block1_trial9.csv,E065,1,80.0,260.0,340.0,False,6.115,
660,9,10,1,False,rug,f,20,2022-11-15 10:24:14.731452,results/221115_10.24_data_subj9_block1_trial10.csv,E021,0,560.0,200.0,760.0,True,5.598,
661,9,10,1,False,rug,f,20,2022-11-15 10:24:14.731452,results/221115_10.24_data_subj9_block1_trial10.csv,E046,1,200.0,200.0,400.0,False,5.598,
662,9,11,1,False,rug,f,20,2022-11-15 10:24:14.731452,results/221115_10.24_data_subj9_block1_trial11.csv,E024,0,500.0,200.0,700.0,True,5.478,
663,9,11,1,False,rug,f,20,2022-11-15 10:24:14.731452,results/221115_10.24_data_subj9_block1_trial11.csv,E072,1,20.0,320.0,340.0,False,5.478,
664,9,12,1,False,rug,f,20,2022-11-15 10:24:14.731452,results/221115_10.24_data_subj9_block1_trial12.csv,E060,0,140.0,260.0,400.0,True,5.984,
665,9,12,1,False,rug,f,20,2022-11-15 10:24:14.731452,results/221115_10.24_data_subj9_block1_trial12.csv,E046,1,200.0,200.0,400.0,False,5.984,
666,9,13,1,False,rug,f,20,2022-11-15 10:24:14.731452,results/221115_10.24_data_subj9_block1_trial13.csv,E028,0,500.0,260.0,760.0,True,6.315,
667,9,13,1,False,rug,f,20,2022-11-15 10:24:14.731452,results/221115_10.24_data_subj9_block1_trial13.csv,E027,1,170.0,80.0,250.0,False,6.315,
668,9,14,1,False,rug,f,20,2022-11-15 10:24:14.731452,results/221115_10.24_data_subj9_block1_trial14.csv,E033,0,80.0,50.0,130.0,False,6.748,
669,9,14,1,False,rug,f,20,2022-11-15 10:24:14.731452,results/221115_10.24_data_subj9_block1_trial14.csv,E037,1,200.0,140.0,340.0,True,6.748,
670,9,15,1,False,rug,f,20,2022-11-15 10:24:14.731452,results/221115_10.24_data_subj9_block1_trial15.csv,E059,0,80.0,140.0,220.0,False,6.18,
671,9,15,1,False,rug,f,20,2022-11-15 10:24:14.731452,results/221115_10.24_data_subj9_block1_trial15.csv,E054,1,200.0,260.0,460.0,True,6.18,
672,9,16,1,False,rug,f,20,2022-11-15 10:24:14.731452,results/221115_10.24_data_subj9_block1_trial16.csv,E040,0,260.0,200.0,460.0,True,5.848,
673,9,16,1,False,rug,f,20,2022-11-15 10:24:14.731452,results/221115_10.24_data_subj9_block1_trial16.csv,E064,1,50.0,140.0,190.0,False,5.848,
674,9,17,1,False,rug,f,20,2022-11-15 10:24:14.731452,results/221115_10.24_data_subj9_block1_trial17.csv,E010,0,500.0,80.0,580.0,False,6.566,
675,9,17,1,False,rug,f,20,2022-11-15 10:24:14.731452,results/221115_10.24_data_subj9_block1_trial17.csv,E042,1,380.0,320.0,700.0,True,6.566,
676,9,18,1,False,rug,f,20,2022-11-15 10:24:14.731452,results/221115_10.24_data_subj9_block1_trial18.csv,E059,0,80.0,140.0,220.0,False,6.165,
677,9,18,1,False,rug,f,20,2022-11-15 10:24:14.731452,results/221115_10.24_data_subj9_block1_trial18.csv,E070,1,20.0,200.0,220.0,True,6.165,
678,9,19,1,False,rug,f,20,2022-11-15 10:24:14.731452,results/221115_10.24_data_subj9_block1_trial19.csv,E044,0,170.0,140.0,310.0,True,5.915,
679,9,19,1,False,rug,f,20,2022-11-15 10:24:14.731452,results/221115_10.24_data_subj9_block1_trial19.csv,E009,1,560.0,80.0,640.0,False,5.915,
680,9,20,1,False,rug,f,20,2022-11-15 10:24:14.731452,results/221115_10.24_data_subj9_block1_trial20.csv,E018,0,260.0,80.0,340.0,True,6.618,
681,9,20,1,False,rug,f,20,2022-11-15 10:24:14.731452,results/221115_10.24_data_subj9_block1_trial20.csv,E031,1,140.0,80.0,220.0,False,6.618,
682,9,21,1,False,rug,f,20,2022-11-15 10:24:14.731452,results/221115_10.24_data_subj9_block1_trial21.csv,E003,0,440.0,20.0,460.0,True,5.732,
683,9,21,1,False,rug,f,20,2022-11-15 10:24:14.731452,results/221115_10.24_data_subj9_block1_trial21.csv,E068,1,20.0,80.0,100.0,False,5.732,
684,9,22,1,False,rug,f,20,2022-11-15 10:24:14.731452,results/221115_10.24_data_subj9_block1_trial22.csv,E083(S38),0,107.0,27.0,134.0,True,6.546,
685,9,22,1,False,rug,f,20,2022-11-15 10:24:14.731452,results/221115_10.24_data_subj9_block1_trial22.csv,E079(S41),1,50.0,110.0,160.0,False,6.546,
686,9,23,1,False,rug,f,20,2022-11-15 10:24:14.731452,results/221115_10.24_data_subj9_block1_trial23.csv,E066,0,50.0,170.0,220.0,True,5.677,
687,9,23,1,False,rug,f,20,2022-11-15 10:24:14.731452,results/221115_10.24_data_subj9_block1_trial23.csv,E049,1,80.0,80.0,160.0,False,5.677,
688,9,24,1,False,rug,f,20,2022-11-15 10:24:14.731452,results/221115_10.24_data_subj9_block1_trial24.csv,E038,0,110.0,80.0,190.0,False,6.429,
689,9,24,1,False,rug,f,20,2022-11-15 10:24:14.731452,results/221115_10.24_data_subj9_block1_trial24.csv,E054,1,200.0,260.0,460.0,True,6.429,
690,9,0,2,False,rug,f,20,2022-11-15 10:24:14.731452,results/221115_10.24_data_subj9_block2_trial0.csv,E047,0,140.0,140.0,280.0,True,6.132,
691,9,0,2,False,rug,f,20,2022-11-15 10:24:14.731452,results/221115_10.24_data_subj9_block2_trial0.csv,E026,1,440.0,200.0,640.0,False,6.132,
692,9,1,2,False,rug,f,20,2022-11-15 10:24:14.731452,results/221115_10.24_data_subj9_block2_trial1.csv,E056,0,110.0,170.0,280.0,True,5.265,
693,9,1,2,False,rug,f,20,2022-11-15 10:24:14.731452,results/221115_10.24_data_subj9_block2_trial1.csv,E009,1,560.0,80.0,640.0,False,5.265,
694,9,2,2,False,rug,f,20,2022-11-15 10:24:14.731452,results/221115_10.24_data_subj9_block2_trial2.csv,E063,0,80.0,200.0,280.0,True,6.148,
695,9,2,2,False,rug,f,20,2022-11-15 10:24:14.731452,results/221115_10.24_data_subj9_block2_trial2.csv,E047,1,140.0,140.0,280.0,False,6.148,
696,9,3,2,False,rug,f,20,2022-11-15 10:24:14.731452,results/221115_10.24_data_subj9_block2_trial3.csv,E074(S39),0,110.0,50.0,160.0,True,6.378,
697,9,3,2,False,rug,f,20,2022-11-15 10:24:14.731452,results/221115_10.24_data_subj9_block2_trial3.csv,E013,1,80.0,20.0,100.0,False,6.378,
698,9,4,2,False,rug,f,20,2022-11-15 10:24:14.731452,results/221115_10.24_data_subj9_block2_trial4.csv,E027,0,170.0,80.0,250.0,False,6.198,
699,9,4,2,False,rug,f,20,2022-11-15 10:24:14.731452,results/221115_10.24_data_subj9_block2_trial4.csv,E065,1,80.0,260.0,340.0,True,6.198,
700,9,5,2,False,rug,f,20,2022-11-15 10:24:14.731452,results/221115_10.24_data_subj9_block2_trial5.csv,E043,0,320.0,260.0,580.0,True,6.314,
701,9,5,2,False,rug,f,20,2022-11-15 10:24:14.731452,results/221115_10.24_data_subj9_block2_trial5.csv,E059,1,80.0,140.0,220.0,False,6.314,
702,9,6,2,False,rug,f,20,2022-11-15 10:24:14.731452,results/221115_10.24_data_subj9_block2_trial6.csv,E074(S39),0,110.0,50.0,160.0,False,6.78,
703,9,6,2,False,rug,f,20,2022-11-15 10:24:14.731452,results/221115_10.24_data_subj9_block2_trial6.csv,E021,1,560.0,200.0,760.0,True,6.78,
704,9,7,2,False,rug,f,20,2022-11-15 10:24:14.731452,results/221115_10.24_data_subj9_block2_trial7.csv,E003,0,440.0,20.0,460.0,True,6.618,
705,9,7,2,False,rug,f,20,2022-11-15 10:24:14.731452,results/221115_10.24_data_subj9_block2_trial7.csv,E019,1,440.0,140.0,580.0,False,6.618,
706,9,8,2,False,rug,f,20,2022-11-15 10:24:14.731452,results/221115_10.24_data_subj9_block2_trial8.csv,E056,0,110.0,170.0,280.0,True,6.047,
707,9,8,2,False,rug,f,20,2022-11-15 10:24:14.731452,results/221115_10.24_data_subj9_block2_trial8.csv,E018,1,260.0,80.0,340.0,False,6.047,
708,9,9,2,False,rug,f,20,2022-11-15 10:24:14.731452,results/221115_10.24_data_subj9_block2_trial9.csv,E006,0,260.0,20.0,280.0,True,6.246,
709,9,9,2,False,rug,f,20,2022-11-15 10:24:14.731452,results/221115_10.24_data_subj9_block2_trial9.csv,E063,1,80.0,200.0,280.0,False,6.246,
710,9,10,2,False,rug,f,20,2022-11-15 10:24:14.731452,results/221115_10.24_data_subj9_block2_trial10.csv,E063,0,80.0,200.0,280.0,False,6.964,
711,9,10,2,False,rug,f,20,2022-11-15 10:24:14.731452,results/221115_10.24_data_subj9_block2_trial10.csv,E024,1,500.0,200.0,700.0,True,6.964,
712,9,11,2,False,rug,f,20,2022-11-15 10:24:14.731452,results/221115_10.24_data_subj9_block2_trial11.csv,E082(S40),0,22.0,113.0,135.0,True,5.922,
713,9,11,2,False,rug,f,20,2022-11-15 10:24:14.731452,results/221115_10.24_data_subj9_block2_trial11.csv,E021,1,560.0,200.0,760.0,False,5.922,
714,9,12,2,False,rug,f,20,2022-11-15 10:24:14.731452,results/221115_10.24_data_subj9_block2_trial12.csv,E009,0,560.0,80.0,640.0,True,6.647,
715,9,12,2,False,rug,f,20,2022-11-15 10:24:14.731452,results/221115_10.24_data_subj9_block2_trial12.csv,E051,1,140.0,170.0,310.0,False,6.647,
716,9,13,2,False,rug,f,20,2022-11-15 10:24:14.731452,results/221115_10.24_data_subj9_block2_trial13.csv,E048,0,170.0,170.0,340.0,False,5.881,
717,9,13,2,False,rug,f,20,2022-11-15 10:24:14.731452,results/221115_10.24_data_subj9_block2_trial13.csv,E040,1,260.0,200.0,460.0,True,5.881,
718,9,14,2,False,rug,f,20,2022-11-15 10:24:14.731452,results/221115_10.24_data_subj9_block2_trial14.csv,E073(S18),0,797.0,116.0,913.0,True,5.814,
719,9,14,2,False,rug,f,20,2022-11-15 10:24:14.731452,results/221115_10.24_data_subj9_block2_trial14.csv,E065,1,80.0,260.0,340.0,False,5.814,
720,9,15,2,False,rug,f,20,2022-11-15 10:24:14.731452,results/221115_10.24_data_subj9_block2_trial15.csv,E046,0,200.0,200.0,400.0,True,6.397,
721,9,15,2,False,rug,f,20,2022-11-15 10:24:14.731452,results/221115_10.24_data_subj9_block2_trial15.csv,E041,1,140.0,110.0,250.0,False,6.397,
722,9,16,2,False,rug,f,20,2022-11-15 10:24:14.731452,results/221115_10.24_data_subj9_block2_trial16.csv,E058,0,50.0,80.0,130.0,True,6.248,
723,9,16,2,False,rug,f,20,2022-11-15 10:24:14.731452,results/221115_10.24_data_subj9_block2_trial16.csv,E013,1,80.0,20.0,100.0,False,6.248,
724,9,17,2,False,rug,f,20,2022-11-15 10:24:14.731452,results/221115_10.24_data_subj9_block2_trial17.csv,E016,0,500.0,140.0,640.0,True,5.679,
725,9,17,2,False,rug,f,20,2022-11-15 10:24:14.731452,results/221115_10.24_data_subj9_block2_trial17.csv,E053,1,110.0,140.0,250.0,False,5.679,
726,9,18,2,False,rug,f,20,2022-11-15 10:24:14.731452,results/221115_10.24_data_subj9_block2_trial18.csv,E076(S43),0,50.0,50.0,100.0,False,6.53,
727,9,18,2,False,rug,f,20,2022-11-15 10:24:14.731452,results/221115_10.24_data_subj9_block2_trial18.csv,E025,1,320.0,140.0,460.0,True,6.53,
728,9,19,2,False,rug,f,20,2022-11-15 10:24:14.731452,results/221115_10.24_data_subj9_block2_trial19.csv,E019,0,440.0,140.0,580.0,True,5.732,
729,9,19,2,False,rug,f,20,2022-11-15 10:24:14.731452,results/221115_10.24_data_subj9_block2_trial19.csv,E077(S32),1,110.0,110.0,220.0,False,5.732,
730,9,20,2,False,rug,f,20,2022-11-15 10:24:14.731452,results/221115_10.24_data_subj9_block2_trial20.csv,E064,0,50.0,140.0,190.0,False,5.76,
731,9,20,2,False,rug,f,20,2022-11-15 10:24:14.731452,results/221115_10.24_data_subj9_block2_trial20.csv,E024,1,500.0,200.0,700.0,True,5.76,
732,9,21,2,False,rug,f,20,2022-11-15 10:24:14.731452,results/221115_10.24_data_subj9_block2_trial21.csv,E052,0,260.0,320.0,580.0,True,5.782,
733,9,21,2,False,rug,f,20,2022-11-15 10:24:14.731452,results/221115_10.24_data_subj9_block2_trial21.csv,E076(S43),1,50.0,50.0,100.0,False,5.782,
734,9,22,2,False,rug,f,20,2022-11-15 10:24:14.731452,results/221115_10.24_data_subj9_block2_trial22.csv,E035,0,170.0,110.0,280.0,True,6.163,
735,9,22,2,False,rug,f,20,2022-11-15 10:24:14.731452,results/221115_10.24_data_subj9_block2_trial22.csv,E048,1,170.0,170.0,340.0,False,6.163,
736,9,23,2,False,rug,f,20,2022-11-15 10:24:14.731452,results/221115_10.24_data_subj9_block2_trial23.csv,E081(S03),0,107.0,210.0,317.0,True,7.597,
737,9,23,2,False,rug,f,20,2022-11-15 10:24:14.731452,results/221115_10.24_data_subj9_block2_trial23.csv,E046,1,200.0,200.0,400.0,False,7.597,
738,9,24,2,False,rug,f,20,2022-11-15 10:24:14.731452,results/221115_10.24_data_subj9_block2_trial24.csv,E030,0,260.0,140.0,400.0,True,5.864,
739,9,24,2,False,rug,f,20,2022-11-15 10:24:14.731452,results/221115_10.24_data_subj9_block2_trial24.csv,E049,1,80.0,80.0,160.0,False,5.864,
740,9,0,3,False,rug,f,20,2022-11-15 10:24:14.731452,results/221115_10.24_data_subj9_block3_trial0.csv,E036,0,380.0,260.0,640.0,True,6.598,
741,9,0,3,False,rug,f,20,2022-11-15 10:24:14.731452,results/221115_10.24_data_subj9_block3_trial0.csv,E034,1,320.0,200.0,520.0,False,6.598,
742,9,1,3,False,rug,f,20,2022-11-15 10:24:14.731452,results/221115_10.24_data_subj9_block3_trial1.csv,E020,0,140.0,50.0,190.0,True,5.615,
743,9,1,3,False,rug,f,20,2022-11-15 10:24:14.731452,results/221115_10.24_data_subj9_block3_trial1.csv,E075(S42),1,20.0,20.0,40.0,False,5.615,
